trialType,cndTyp,lag,T1_loc,T2_loc,stimLen,isi,skipProb,phase,trials.thisRepN,trials.thisTrialN,trials.thisN,trials.thisIndex,trials2.thisRepN,trials2.thisTrialN,trials2.thisN,trials2.thisIndex,text_3.started,text_3.stopped,key_resp_4.keys,key_resp_4.rt,key_resp_4.started,key_resp_4.stopped,img0,img1,img2,img3,img4,img5,img6,img7,img8,img9,img10,img11,img12,img13,img14,img15,img16,option1.started,option1.stopped,option2.started,option2.stopped,text_2.started,text_2.stopped,skip1,skip2,lastPresent,displayPicture.started,displayPicture.stopped,polygon_2.started,polygon_2.stopped,opt1_t1,polygon_4.started,polygon_4.stopped,cor1,option1_t1.started,option1_t1.stopped,key_resp.keys,key_resp.rt,key_resp.started,key_resp.stopped,polygon_5.started,polygon_5.stopped,cor2,option1_t2.started,option1_t2.stopped,key_resp_2.keys,key_resp_2.rt,key_resp_2.started,key_resp_2.stopped,feedbackText.started,feedbackText.stopped,text.started,text.stopped,key_resp_3.keys,key_resp_3.started,key_resp_3.stopped,text_4.started,text_4.stopped,key_resp_7.keys,key_resp_7.rt,key_resp_7.started,key_resp_7.stopped,option1_2.started,option1_2.stopped,option2_2.started,option2_2.stopped,text_5.started,text_5.stopped,t0,t1,t2,t3,t4,t5,t6,t7,t8,t9,t10,t11,t12,t13,displayPicture_3.started,displayPicture_3.stopped,polygon_13.started,polygon_13.stopped,polygon_7.started,polygon_7.stopped,option1_t1_2.started,option1_t1_2.stopped,key_resp_6.keys,key_resp_6.rt,key_resp_6.started,key_resp_6.stopped,polygon_6.started,polygon_6.stopped,option1_t2_2.started,option1_t2_2.stopped,key_resp_5.keys,key_resp_5.rt,key_resp_5.started,key_resp_5.stopped,t14,participant,session,date,expName,psychopyVersion,frameRate,
,,,,,,,,,,,,,,,,,163.27447080001002,None,space,1.6033012000116287,163.27447080001002,None,,,,,,,,,,,,,,,,,,,,,,,,,,,,,,,,,,,,,,,,,,,,,,,,,,,,,,,,,,,,,,,,,,,,,,,,,,,,,,,,,,,,,,,,,,,,,,,,,,,,,,,,,001,2021_Mar_17_1206,AB_pic,2020.2.10,59.985735395237384,
AB,lag6,6,5,11,0.2,0.05,0.5,,0,0,0,0,,,,,,,,,,,frisbee.jpg,hotdogweiner.jpg,eiffeltower.jpg,skateboard.jpg,chimney.jpg,crosscountryski.jpg,cobra.jpg,electrictoothbrush01c.jpg,uprightpiano01.jpg,peacock.jpg,panda.jpg,baseballbat.jpg,footballhelmet.jpg,bench01.jpg,jackrabbit.jpg,donut.jpg,helicopter.jpg,164.97171520000848,167.72107200000028,164.97171520000848,167.72107200000028,167.45440420000523,None,0,1,13,167.95445440000913,None,167.95445440000913,None,.\resources\panda.jpg,171.4541925000085,None,1,171.4541925000085,None,right,0.9283328000019537,171.4541925000085,None,172.4207616000058,None,1,172.4207616000058,None,left,0.23306529999535996,172.4207616000058,None,172.68740740000794,None,173.68731521000154,None,None,173.68731521000154,None,,,,,,,,,,,,,,,,,,,,,,,,,,,,,,,,,,,,,,,,,,,,,,,,,001,2021_Mar_17_1206,AB_pic,2020.2.10,59.985735395237384,
,,,,,,,,,,,,,,,,,,,,,,,,,,,,,,,,,,,,,,,,,,,,,,,,,,,,,,,,,,,,,,,,,,,,,,,,,,,,,,,173.70417250000173,None,space,1.5803864999907091,173.70417250000173,None,,,,,,,,,,,,,,,,,,,,,,,,,,,,,,,,,,,,,,,,,,,001,2021_Mar_17_1206,AB_pic,2020.2.10,59.985735395237384,
AB,lag6,6,5,11,0.2,0.05,0.5,ramp,,,,,0,0,0,0,,,,,,,baseballbat.jpg,peacock.jpg,ladder.jpg,frenchfries.jpg,cobra.jpg,skateboard.jpg,frisbee.jpg,uprightpiano01.jpg,kite.jpg,bench01.jpg,electrictoothbrush01c.jpg,seal.jpg,panda.jpg,ipad02.jpg,cloud.jpg,helicopter.jpg,footballhelmet.jpg,,,,,,,0,0,13,,,,,.\resources\electrictoothbrush01c.jpg,,,1,,,,,,,,,1,,,,,,,,,182.503424909999,None,None,182.503424909999,None,,,,,,,175.37100780000037,178.12037860001146,175.37100780000037,178.12037860001146,177.83706740000343,None,0.265909499998088,0.5158824999962235,0.7658709999959683,1.0158566999889445,1.2657953000016278,1.5158492999908049,1.7658035999920685,2.0157935000024736,2.2657775999978185,2.5157085999962874,2.7657517999905394,3.015726199999335,3.265738699992653,3.515694399990025,178.33716550000827,None,178.33716550000827,None,181.85348020000674,None,181.85348020000674,None,right,0.43272450000222307,181.85348020000674,None,182.32010360001004,None,182.32010360001004,None,right,0.15774100000271574,182.32010360001004,None,,,001,2021_Mar_17_1206,AB_pic,2020.2.10,59.985735395237384,
AB,lag4,4,4,8,0.193334,0.05,0.48,ramp,,,,,0,1,1,1,,,,,,,frenchfries.jpg,chefshat.jpg,baseballbat.jpg,seal.jpg,electrictoothbrush01c.jpg,footballhelmet.jpg,frisbee.jpg,helicopter.jpg,lily.jpg,crosscountryski.jpg,peacock.jpg,cloud.jpg,bench01.jpg,knee.jpg,arrow02.jpg,cheetah.jpg,nosmokingsign.jpg,,,,,,,0,0,10,,,,,.\resources\helicopter.jpg,,,1,,,,,,,,,1,,,,,,,,,188.85298341000453,None,None,188.85298341000453,None,,,,,,,182.52023870000266,185.26991280000948,182.52023870000266,185.26991280000948,185.0032646000036,None,0.2481670999986818,0.4981524999893736,0.7314901999925496,0.9815057999949204,1.2314438999892445,1.4647635999863269,1.714737399990554,1.9480412999982946,2.1980317999987165,2.4480344999901718,2.6813978999998653,,,,185.50325680000242,None,185.50325680000242,None,188.2030453000043,None,188.2030453000043,None,right,0.4189883000071859,188.2030453000043,None,188.66966470000625,None,188.66966470000625,None,right,0.1522450999909779,188.66966470000625,None,,,001,2021_Mar_17_1206,AB_pic,2020.2.10,59.985735395237384,
AB,lag7,7,4,11,0.186668,0.05,0.45999999999999996,ramp,,,,,0,2,2,2,,,,,,,frisbee.jpg,uprightpiano01.jpg,knee.jpg,seal.jpg,helicopter.jpg,bench01.jpg,chefshat.jpg,peacock.jpg,crosscountryski.jpg,panda.jpg,frenchfries.jpg,donut.jpg,corn02.jpg,eiffeltower.jpg,electrictoothbrush01c.jpg,skateboard.jpg,ipad02.jpg,,,,,,,0,1,13,,,,,.\resources\frenchfries.jpg,,,1,,,,,,,,,1,,,,,,,,,195.93588101000933,None,None,195.93588101000933,None,,,,,,,188.86965690000216,191.61946050000552,188.86965690000216,191.61946050000552,191.35283380000328,None,0.24725839999155141,0.4805898999911733,0.7138988999940921,0.9472064999863505,1.1972501999989618,1.4306700999877648,1.663862599991262,1.8971620999946026,2.130525399988983,2.3804494999931194,2.613790399991558,2.84709219999786,3.080485599988606,3.3137282999960007,191.85280870000133,None,191.85280870000133,None,195.18606390000787,None,195.18606390000787,None,right,0.45169099999475293,195.18606390000787,None,195.68589920000522,None,195.68589920000522,None,left,0.23198660000343807,195.68589920000522,None,,,001,2021_Mar_17_1206,AB_pic,2020.2.10,59.985735395237384,
AB,lag5,5,5,10,0.180002,0.05,0.43999999999999995,ramp,,,,,0,3,3,3,,,,,,,hotdogweiner.jpg,seal.jpg,knee.jpg,bench01.jpg,jackrabbit.jpg,ladder.jpg,peacock.jpg,corn02.jpg,eiffeltower.jpg,chimney.jpg,frisbee.jpg,kite.jpg,crosscountryski.jpg,ipad02.jpg,helicopter.jpg,cheetah.jpg,nosmokingsign.jpg,,,,,,,1,0,12,,,,,.\resources\chimney.jpg,,,1,,,,,,,,,1,,,,,,,,,202.63542021000467,None,None,202.63542021000467,None,,,,,,,195.96919720000005,198.71900730000925,195.96919720000005,198.71900730000925,198.43569730001036,None,0.2316634000017075,0.4649398000037763,0.6982719999941764,0.9315788999956567,1.1649441000045044,1.3815495000017108,1.61485110000649,1.8481767000048421,2.08144270000048,2.314847000001464,2.5314738000015495,2.7647613000008278,2.9981274000019766,,198.93566260000807,None,198.93566260000807,None,201.95213720000174,None,201.95213720000174,None,left,0.42975579999620095,201.95213720000174,None,202.41876010000124,None,202.41876010000124,None,right,0.19500419999531005,202.41876010000124,None,,,001,2021_Mar_17_1206,AB_pic,2020.2.10,59.985735395237384,
AB,lag2,2,3,5,0.173336,0.05,0.41999999999999993,ramp,,,,,0,4,4,4,,,,,,,helicopter.jpg,electrictoothbrush01c.jpg,footballhelmet.jpg,panda.jpg,ipad02.jpg,seal.jpg,lily.jpg,jackrabbit.jpg,eiffeltower.jpg,kite.jpg,uprightpiano01.jpg,arrow02.jpg,skateboard.jpg,cobra.jpg,nosmokingsign.jpg,chimney.jpg,ladder.jpg,,,,,,,1,1,7,,,,,.\resources\ipad02.jpg,,,1,,,,,,,,,1,,,,,,,,,208.7183519100072,None,None,208.7183519100072,None,,,,,,,202.65210040000966,205.40190240000084,202.65210040000966,205.40190240000084,205.13525110000046,None,0.23135660000843927,0.4480503999948269,0.6813724999956321,0.8980215000046883,1.1313337000028696,1.3479937999945832,1.564727999997558,1.7979377000010572,,,,,,,205.63522470000316,None,205.63522470000316,None,207.45176840000204,None,207.45176840000204,None,left,1.050114300000132,207.45176840000204,None,208.53514089999953,None,208.53514089999953,None,left,0.15913670000736602,208.53514089999953,None,,,001,2021_Mar_17_1206,AB_pic,2020.2.10,59.985735395237384,
AB,lag3,3,5,8,0.16666999999999998,0.05,0.3999999999999999,ramp,,,,,0,5,5,5,,,,,,,lily.jpg,arrow02.jpg,hotdogweiner.jpg,frenchfries.jpg,crosscountryski.jpg,kite.jpg,baseballbat.jpg,bench01.jpg,peacock.jpg,helicopter.jpg,chimney.jpg,donut.jpg,jackrabbit.jpg,ipad02.jpg,cobra.jpg,chefshat.jpg,frisbee.jpg,,,,,,,0,1,10,,,,,.\resources\bench01.jpg,,,1,,,,,,,,,1,,,,,,,,,215.41792130999966,None,None,215.41792130999966,None,,,,,,,208.7349719000049,211.48521880000771,208.7349719000049,211.48521880000771,211.21856990001106,None,0.23116809999919496,0.4477712999942014,0.6643952000013087,0.8810643000033451,1.0977125000063097,1.3143794000061462,1.5310536000033608,1.7476648000010755,1.96433899999829,2.181037300004391,2.3977015999989817,,,,211.7181023000012,None,211.7181023000012,None,214.1348563000065,None,214.1348563000065,None,right,1.046927199990023,214.1348563000065,None,215.21792590001132,None,215.21792590001132,None,left,0.17209870000078809,215.21792590001132,None,,,001,2021_Mar_17_1206,AB_pic,2020.2.10,59.985735395237384,
AB,lag1,1,4,5,0.16000399999999998,0.05,0.3799999999999999,ramp,,,,,0,6,6,6,,,,,,,jackrabbit.jpg,eiffeltower.jpg,chimney.jpg,lily.jpg,kite.jpg,footballhelmet.jpg,electrictoothbrush01c.jpg,crosscountryski.jpg,ipad02.jpg,cobra.jpg,peacock.jpg,uprightpiano01.jpg,seal.jpg,skateboard.jpg,ladder.jpg,corn02.jpg,donut.jpg,,,,,,,1,0,7,,,,,.\resources\kite.jpg,,,1,,,,,,,,,1,,,,,,,,,221.30085201001202,None,None,221.30085201001202,None,,,,,,,215.4347213000001,218.18485640001018,215.4347213000001,218.18485640001018,217.91820980000193,None,0.21458159999747295,0.4316536999976961,0.6312120999937179,0.8478599999943981,1.064523900000495,1.2644954999996116,1.4810979000030784,1.6810890999913681,,,,,,,218.4177231000067,None,218.4177231000067,None,220.117542100008,None,220.117542100008,None,left,1.0242026000050828,220.117542100008,None,221.18430980000994,None,221.18430980000994,None,right,0.09339360000740271,221.18430980000994,None,,,001,2021_Mar_17_1206,AB_pic,2020.2.10,59.985735395237384,
AB,lag6,6,5,11,0.15333799999999997,0.05,0.3599999999999999,ramp,,,,,0,7,7,7,,,,,,,cobra.jpg,peacock.jpg,corn02.jpg,lily.jpg,donut.jpg,baseballbat.jpg,crosscountryski.jpg,hotdogweiner.jpg,footballhelmet.jpg,panda.jpg,uprightpiano01.jpg,kite.jpg,bench01.jpg,chimney.jpg,nosmokingsign.jpg,eiffeltower.jpg,cloud.jpg,,,,,,,0,0,13,,,,,.\resources\uprightpiano01.jpg,,,1,,,,,,,,,1,,,,,,,,,227.96707610999874,None,None,227.96707610999874,None,,,,,,,221.31749610000406,224.06771170000138,221.31749610000406,224.06771170000138,223.80065280001145,None,0.21447799999441486,0.4144386999978451,0.6140394999965793,0.814086899990798,1.0307247000018833,1.2306504000007408,1.4306263999897055,1.6306271999928867,1.8306295999936992,2.0472727000014856,2.2472640999912983,2.447248500000569,2.6472263999894494,2.8472106999979587,224.30063769999833,None,224.30063769999833,None,227.16707779999706,None,227.16707779999706,None,right,0.590788599991356,227.16707779999706,None,227.80038070000592,None,227.80038070000592,None,right,0.14936179999494925,227.80038070000592,None,,,001,2021_Mar_17_1206,AB_pic,2020.2.10,59.985735395237384,
AB,lag3,3,4,7,0.14667199999999997,0.05,0.33999999999999986,ramp,,,,,0,8,8,8,,,,,,,baseballbat.jpg,ladder.jpg,knee.jpg,cloud.jpg,helicopter.jpg,skateboard.jpg,hotdogweiner.jpg,kite.jpg,chefshat.jpg,electrictoothbrush01c.jpg,frisbee.jpg,uprightpiano01.jpg,lily.jpg,panda.jpg,nosmokingsign.jpg,cobra.jpg,jackrabbit.jpg,,,,,,,0,0,9,,,,,.\resources\hotdogweiner.jpg,,,1,,,,,,,,,1,,,,,,,,,233.68335211000522,None,None,233.68335211000522,None,,,,,,,227.98384970000188,230.73392199999944,227.98384970000188,230.73392199999944,230.46730150000076,None,0.19670149999728892,0.39670559999649413,0.5968102999904659,0.7966732999921078,0.9962807999982033,1.1962235999963013,1.3795853999909014,1.5797551999858115,1.7794866999902297,1.979501199995866,,,,,230.9839190000057,None,230.9839190000057,None,232.95004770001105,None,232.95004770001105,None,right,0.5117874999996275,232.95004770001105,None,233.5000113999995,None,233.5000113999995,None,right,0.15396009999676608,233.5000113999995,None,,,001,2021_Mar_17_1206,AB_pic,2020.2.10,59.985735395237384,
AB,lag4,4,4,8,0.14000599999999996,0.05,0.31999999999999984,ramp,,,,,0,9,9,9,,,,,,,footballhelmet.jpg,arrow02.jpg,jackrabbit.jpg,baseballbat.jpg,nosmokingsign.jpg,frenchfries.jpg,helicopter.jpg,peacock.jpg,chefshat.jpg,hotdogweiner.jpg,skateboard.jpg,crosscountryski.jpg,seal.jpg,chimney.jpg,donut.jpg,ladder.jpg,cloud.jpg,,,,,,,1,1,10,,,,,.\resources\peacock.jpg,,,1,,,,,,,,,0,,,,,,,,,240.29955801001051,None,None,240.29955801001051,None,,,,,,,233.70000040000014,236.45020570000634,233.70000040000014,236.45020570000634,236.1835856000107,None,0.19738449998840224,0.38069749998976476,0.5806861999881221,0.7640059999976074,0.9639334999956191,1.147310499989544,1.3306186999980127,1.5306232000002638,1.7139805999904638,1.913925399989239,2.097230999992462,,,,236.6831477000087,None,236.6831477000087,None,238.79979250000906,None,238.79979250000906,None,left,1.1740043000027072,238.79979250000906,None,239.99957820000418,None,239.99957820000418,None,right,0.27022049999504816,239.99957820000418,None,,,001,2021_Mar_17_1206,AB_pic,2020.2.10,59.985735395237384,
AB,lag5,5,4,9,0.13333999999999996,0.05,0.2999999999999998,ramp,,,,,0,10,10,10,,,,,,,cheetah.jpg,helicopter.jpg,chefshat.jpg,donut.jpg,baseballbat.jpg,ipad02.jpg,knee.jpg,nosmokingsign.jpg,kite.jpg,lily.jpg,crosscountryski.jpg,seal.jpg,uprightpiano01.jpg,panda.jpg,chimney.jpg,arrow02.jpg,frenchfries.jpg,,,,,,,0,0,11,,,,,.\resources\kite.jpg,,,1,,,,,,,,,1,,,,,,,,,246.3491616100073,None,None,246.3491616100073,None,,,,,,,240.31622040001093,243.0664637000009,240.31622040001093,243.0664637000009,242.79938900000707,None,0.1982196000026306,0.3815234000066994,0.5648662000021432,0.7477794000005815,0.9310870000044815,1.1144410999986576,1.2977070000051754,1.481098500007647,1.6643826000072295,1.8477265999972587,2.0310030999971787,2.21431080000184,,,243.29935660000774,None,243.29935660000774,None,245.53251850001107,None,245.53251850001107,None,right,0.4412744000001112,245.53251850001107,None,246.01595600000292,None,246.01595600000292,None,right,0.30221090000122786,246.01595600000292,None,,,001,2021_Mar_17_1206,AB_pic,2020.2.10,59.985735395237384,
AB,lag2,2,3,5,0.12667399999999995,0.05,0.2799999999999998,ramp,,,,,0,11,11,11,,,,,,,uprightpiano01.jpg,chimney.jpg,seal.jpg,arrow02.jpg,frisbee.jpg,hotdogweiner.jpg,helicopter.jpg,ladder.jpg,ipad02.jpg,kite.jpg,cobra.jpg,electrictoothbrush01c.jpg,footballhelmet.jpg,skateboard.jpg,cloud.jpg,frenchfries.jpg,donut.jpg,,,,,,,0,1,7,,,,,.\resources\frisbee.jpg,,,1,,,,,,,,,1,,,,,,,,,252.0654517100047,None,None,252.0654517100047,None,,,,,,,246.36582800000906,249.11604170000646,246.36582800000906,249.11604170000646,248.84897200000705,None,0.18126050000137184,0.3646999000047799,0.5308682000031695,0.7141868000035174,0.8974719999969238,1.0641199999954551,1.247481099999277,1.4140979000076186,,,,,,,249.34896200000367,None,249.34896200000367,None,250.78219360001094,None,250.78219360001094,None,right,0.959570299994084,250.78219360001094,None,251.782263400004,None,251.782263400004,None,left,0.2635974000004353,251.782263400004,None,,,001,2021_Mar_17_1206,AB_pic,2020.2.10,59.985735395237384,
AB,lag1,1,4,5,0.12000799999999995,0.05,0.2599999999999998,ramp,,,,,0,12,12,12,,,,,,,footballhelmet.jpg,panda.jpg,frenchfries.jpg,chefshat.jpg,kite.jpg,donut.jpg,skateboard.jpg,cobra.jpg,nosmokingsign.jpg,seal.jpg,cloud.jpg,knee.jpg,crosscountryski.jpg,ipad02.jpg,peacock.jpg,hotdogweiner.jpg,uprightpiano01.jpg,,,,,,,0,0,7,,,,,.\resources\kite.jpg,,,1,,,,,,,,,1,,,,,,,,,257.315097210012,None,None,257.315097210012,None,,,,,,,252.082089500007,254.8323398000066,252.082089500007,254.8323398000066,254.56566740000562,None,0.18099009999423288,0.34767610000562854,0.5143471000046702,0.6809709999943152,0.8639163000043482,1.0305324999935692,1.1971690000063973,1.3638858000049368,,,,,,,255.06523960000777,None,255.06523960000777,None,256.44849120000436,None,256.44849120000436,None,right,0.5893071999889798,256.44849120000436,None,257.08177990000695,None,257.08177990000695,None,right,0.2041151000012178,257.08177990000695,None,,,001,2021_Mar_17_1206,AB_pic,2020.2.10,59.985735395237384,
AB,lag7,7,5,12,0.11334199999999994,0.05,0.2399999999999998,ramp,,,,,0,13,13,13,,,,,,,frenchfries.jpg,skateboard.jpg,crosscountryski.jpg,hotdogweiner.jpg,kite.jpg,donut.jpg,bench01.jpg,peacock.jpg,ladder.jpg,frisbee.jpg,footballhelmet.jpg,knee.jpg,nosmokingsign.jpg,panda.jpg,helicopter.jpg,cheetah.jpg,cobra.jpg,,,,,,,0,0,14,,,,,.\resources\knee.jpg,,,1,,,,,,,,,1,,,,,,,,,263.6647083100106,None,None,263.6647083100106,None,,,,,,,257.33177330000035,260.08214120000775,257.33177330000035,260.08214120000775,259.8150122000079,None,0.16375900000275578,0.33031479999772273,0.4969905000034487,0.663705500002834,0.8302879999973811,0.9803045000007842,1.146957899996778,1.313606700001401,1.4802410999982385,1.6469034999900032,1.7969500999897718,1.9636956000031205,2.130198799990467,2.2968697999895085,260.3321438999992,None,260.3321438999992,None,262.7981174000015,None,262.7981174000015,None,right,0.6077771999989636,262.7981174000015,None,263.44805550000456,None,263.44805550000456,None,right,0.18972030001168605,263.44805550000456,None,2.4635822999989614,,001,2021_Mar_17_1206,AB_pic,2020.2.10,59.985735395237384,
AB,lag1,1,3,4,0.10667599999999994,0.05,0.2199999999999998,ramp,,,,,0,14,14,14,,,,,,,seal.jpg,electrictoothbrush01c.jpg,uprightpiano01.jpg,corn02.jpg,peacock.jpg,baseballbat.jpg,footballhelmet.jpg,lily.jpg,crosscountryski.jpg,cheetah.jpg,chefshat.jpg,frisbee.jpg,kite.jpg,helicopter.jpg,cloud.jpg,ipad02.jpg,ladder.jpg,,,,,,,0,0,6,,,,,.\resources\corn02.jpg,,,1,,,,,,,,,1,,,,,,,,,268.897677009998,None,None,268.897677009998,None,,,,,,,263.6813658000028,266.4311824000033,263.6813658000028,266.4311824000033,266.16452550000395,None,0.16505080000206362,0.31506950000766665,0.4817393999983324,0.6316918000084115,0.7983651999966241,0.9483328000060283,1.0983485000033397,,,,,,,,266.66451360000065,None,266.66451360000065,None,267.7812774000049,None,267.7812774000049,None,right,0.6243564000033075,267.7812774000049,None,268.4478189000074,None,268.4478189000074,None,right,0.42178309999872,268.4478189000074,None,,,001,2021_Mar_17_1206,AB_pic,2020.2.10,59.985735395237384,
AB,lag6,6,5,11,0.1,0.05,0.2,main,,,,,0,15,15,15,,,,,,,panda.jpg,peacock.jpg,ladder.jpg,chimney.jpg,arrow02.jpg,cobra.jpg,footballhelmet.jpg,uprightpiano01.jpg,corn02.jpg,chefshat.jpg,skateboard.jpg,seal.jpg,electrictoothbrush01c.jpg,hotdogweiner.jpg,nosmokingsign.jpg,ipad02.jpg,donut.jpg,,,,,,,0,0,13,,,,,.\resources\skateboard.jpg,,,1,,,,,,,,,1,,,,,,,,,275.01394291000906,None,None,275.01394291000906,None,,,,,,,268.91442590000224,271.6645392000064,268.91442590000224,271.6645392000064,271.39790450000146,None,0.1643735999969067,0.31433389999438077,0.46454329999687616,0.6143351999926381,0.7644094999996014,0.9142596000019694,1.0638192000042181,1.213894700005767,1.3638371999986703,1.5137934999947902,1.6638261000043713,1.81380459999491,1.963840700002038,2.113759800005937,271.8975055000046,None,271.8975055000046,None,274.03067010000814,None,274.03067010000814,None,right,0.6229909999965457,274.03067010000814,None,274.69728370000666,None,274.69728370000666,None,right,0.300355600003968,274.69728370000666,None,,,001,2021_Mar_17_1206,AB_pic,2020.2.10,59.985735395237384,
AB,lag1,1,5,6,0.1,0.05,0.2,main,,,,,0,16,16,16,,,,,,,frenchfries.jpg,baseballbat.jpg,cheetah.jpg,skateboard.jpg,lily.jpg,seal.jpg,donut.jpg,bench01.jpg,footballhelmet.jpg,kite.jpg,frisbee.jpg,crosscountryski.jpg,arrow02.jpg,helicopter.jpg,knee.jpg,cobra.jpg,jackrabbit.jpg,,,,,,,0,0,8,,,,,.\resources\seal.jpg,,,1,,,,,,,,,0,,,,,,,,,281.24683271000686,None,None,281.24683271000686,None,,,,,,,275.03059570000914,277.78083460000926,275.03059570000914,277.78083460000926,277.5141561000055,None,0.16485479999391828,0.3147496999881696,0.464719999989029,0.6147434000013163,0.7646489999897312,0.9142541999899549,1.064360399992438,1.2142312999931164,1.364227199999732,,,,,,278.01376630000595,None,278.01376630000595,None,279.39714710001135,None,279.39714710001135,None,right,1.528447699995013,279.39714710001135,None,280.9635595,None,280.9635595,None,left,0.26605819999531377,280.9635595,None,,,001,2021_Mar_17_1206,AB_pic,2020.2.10,59.985735395237384,
AB,lag5,5,3,8,0.1,0.05,0.2,main,,,,,0,17,17,17,,,,,,,frisbee.jpg,panda.jpg,seal.jpg,knee.jpg,chefshat.jpg,crosscountryski.jpg,cloud.jpg,skateboard.jpg,helicopter.jpg,cobra.jpg,lily.jpg,ipad02.jpg,hotdogweiner.jpg,kite.jpg,baseballbat.jpg,donut.jpg,footballhelmet.jpg,,,,,,,0,1,10,,,,,.\resources\skateboard.jpg,,,1,,,,,,,,,1,,,,,,,,,286.9464418100106,None,None,286.9464418100106,None,,,,,,,281.2636017000041,284.0137470000045,281.2636017000041,284.0137470000045,283.74664660000417,None,0.16433790000155568,0.31434560001071077,0.46427870000479743,0.614253000007011,0.763857600002666,0.9139245999976993,1.063832600004389,1.2138528000068618,1.3638294999982463,1.513828499999363,1.663826500007417,,,,284.2466453000088,None,284.2466453000088,None,285.92987180000637,None,285.92987180000637,None,right,0.7157180000067456,285.92987180000637,None,286.67995659999724,None,286.67995659999724,None,left,0.23765199999616016,286.67995659999724,None,,,001,2021_Mar_17_1206,AB_pic,2020.2.10,59.985735395237384,
AB,lag3,3,4,7,0.1,0.05,0.2,main,,,,,0,18,18,18,,,,,,,chimney.jpg,jackrabbit.jpg,kite.jpg,frisbee.jpg,crosscountryski.jpg,cheetah.jpg,eiffeltower.jpg,helicopter.jpg,baseballbat.jpg,hotdogweiner.jpg,seal.jpg,donut.jpg,nosmokingsign.jpg,chefshat.jpg,knee.jpg,bench01.jpg,arrow02.jpg,,,,,,,1,1,9,,,,,.\resources\eiffeltower.jpg,,,1,,,,,,,,,1,,,,,,,,,292.7460623100051,None,None,292.7460623100051,None,,,,,,,286.9631260000024,289.7133584999974,286.9631260000024,289.7133584999974,289.44669570001133,None,0.16466480000235606,0.3146115999988979,0.46472600000561215,0.6145322999946075,0.7645481999934418,0.9145458999992115,1.0641156999918167,1.2140953999914927,1.3640889999951469,1.514084599999478,,,,,289.94627890000993,None,289.94627890000993,None,291.47952940000687,None,291.47952940000687,None,left,0.9981767999997828,291.47952940000687,None,292.51286240000627,None,292.51286240000627,None,left,0.2047483999922406,292.51286240000627,None,,,001,2021_Mar_17_1206,AB_pic,2020.2.10,59.985735395237384,
AB,lag2,2,5,7,0.1,0.05,0.2,main,,,,,0,19,19,19,,,,,,,ipad02.jpg,chefshat.jpg,eiffeltower.jpg,skateboard.jpg,uprightpiano01.jpg,helicopter.jpg,bench01.jpg,baseballbat.jpg,jackrabbit.jpg,panda.jpg,cheetah.jpg,footballhelmet.jpg,ladder.jpg,crosscountryski.jpg,seal.jpg,electrictoothbrush01c.jpg,knee.jpg,,,,,,,0,0,9,,,,,.\resources\bench01.jpg,,,0,,,,,,,,,1,,,,,,,,,299.86234871001216,None,None,299.86234871001216,None,,,,,,,292.76281690000906,295.5129872000107,292.76281690000906,295.5129872000107,295.2463332000043,None,0.16438859999470878,0.3143975999992108,0.4644086000043899,0.6143518000026233,0.7643419999949401,0.9143860000040149,1.0643524999904912,1.2138985999918077,1.3639128999930108,1.5139517999923555,,,,,295.74589160000323,None,295.74589160000323,None,297.27922900000704,None,297.27922900000704,None,left,0.9823451999982353,297.27922900000704,None,298.29583560000174,None,298.29583560000174,None,right,1.5498339999903692,298.29583560000174,None,,,001,2021_Mar_17_1206,AB_pic,2020.2.10,59.985735395237384,
AB,lag4,4,3,7,0.1,0.05,0.2,main,,,,,0,20,20,20,,,,,,,kite.jpg,peacock.jpg,ladder.jpg,ipad02.jpg,cheetah.jpg,uprightpiano01.jpg,arrow02.jpg,chefshat.jpg,cloud.jpg,cobra.jpg,footballhelmet.jpg,lily.jpg,chimney.jpg,baseballbat.jpg,skateboard.jpg,frenchfries.jpg,bench01.jpg,,,,,,,0,0,9,,,,,.\resources\arrow02.jpg,,,1,,,,,,,,,1,,,,,,,,,304.9952611100016,None,None,304.9952611100016,None,,,,,,,299.879096500008,302.6291804000066,299.879096500008,302.6291804000066,302.3625178000075,None,0.16423530000611208,0.31427470000926405,0.464189800011809,0.6141780000034487,0.7641861000010977,0.914210600007209,1.0638093000015942,1.2137355000013486,1.3637504000071203,1.5137562000018079,,,,,302.86208479999914,None,302.86208479999914,None,304.3953007000091,None,304.3953007000091,None,right,0.3703757999901427,304.3953007000091,None,304.7952847999986,None,304.7952847999986,None,right,0.17033210000954568,304.7952847999986,None,,,001,2021_Mar_17_1206,AB_pic,2020.2.10,59.985735395237384,
AB,lag7,7,5,12,0.1,0.05,0.2,main,,,,,0,21,21,21,,,,,,,kite.jpg,ipad02.jpg,eiffeltower.jpg,cloud.jpg,crosscountryski.jpg,frenchfries.jpg,cobra.jpg,baseballbat.jpg,ladder.jpg,donut.jpg,nosmokingsign.jpg,chefshat.jpg,skateboard.jpg,lily.jpg,seal.jpg,bench01.jpg,frisbee.jpg,,,,,,,1,1,14,,,,,.\resources\chefshat.jpg,,,1,,,,,,,,,1,,,,,,,,,311.7281771100097,None,None,311.7281771100097,None,,,,,,,305.01196139999956,307.76220170001034,305.01196139999956,307.76220170001034,307.4955684000015,None,0.16505440000037197,0.31499060000351164,0.4649647000042023,0.6149220999941463,0.764957699997467,0.9149600999953691,1.064977899994119,1.2149459999927785,1.3649231000017608,1.5148847999953432,1.66497349999554,1.8148917999933474,1.9649306000064826,2.1148533999948995,307.99507400000584,None,307.99507400000584,None,310.2784498999972,None,310.2784498999972,None,left,0.9831562999897869,310.2784498999972,None,311.2950756000064,None,311.2950756000064,None,left,0.4145181999920169,311.2950756000064,None,2.26486670000304,,001,2021_Mar_17_1206,AB_pic,2020.2.10,59.985735395237384,
AB,lag6,6,5,11,0.1,0.05,0.2,main,,,,,0,22,22,22,,,,,,,uprightpiano01.jpg,peacock.jpg,arrow02.jpg,corn02.jpg,hotdogweiner.jpg,footballhelmet.jpg,skateboard.jpg,electrictoothbrush01c.jpg,jackrabbit.jpg,ipad02.jpg,cheetah.jpg,frenchfries.jpg,crosscountryski.jpg,lily.jpg,kite.jpg,baseballbat.jpg,frisbee.jpg,,,,,,,0,0,13,,,,,.\resources\cheetah.jpg,,,1,,,,,,,,,1,,,,,,,,,317.51112591000856,None,None,317.51112591000856,None,,,,,,,311.7449881000066,314.4950830000016,311.7449881000066,314.4950830000016,314.22843699999794,None,0.16465030000836123,0.3146028000046499,0.4646136000083061,0.6145446000009542,0.764559500006726,0.914590300002601,1.0645604000019375,1.214536900006351,1.364543700008653,1.5145838000025833,1.6644707000086783,1.8145180999999866,1.9645095000014408,2.1144997000083094,314.72798209999746,None,314.72798209999746,None,316.86120060000394,None,316.86120060000394,None,right,0.3603795000090031,316.86120060000394,None,317.2612979999976,None,317.2612979999976,None,right,0.22426139999879524,317.2612979999976,None,,,001,2021_Mar_17_1206,AB_pic,2020.2.10,59.985735395237384,
AB,lag7,7,5,12,0.1,0.05,0.2,main,,,,,0,23,23,23,,,,,,,peacock.jpg,footballhelmet.jpg,seal.jpg,lily.jpg,frisbee.jpg,bench01.jpg,chimney.jpg,ladder.jpg,panda.jpg,frenchfries.jpg,baseballbat.jpg,helicopter.jpg,corn02.jpg,uprightpiano01.jpg,knee.jpg,crosscountryski.jpg,chefshat.jpg,,,,,,,0,0,14,,,,,.\resources\helicopter.jpg,,,0,,,,,,,,,1,,,,,,,,,323.41068661000463,None,None,323.41068661000463,None,,,,,,,317.5278271999996,320.277605100011,317.5278271999996,320.277605100011,320.01092320001044,None,0.16445530000783037,0.3144503000075929,0.46436090000497643,0.6144430999993347,0.7645682000002125,0.9143719999992754,1.0644086000102106,1.2143560000113212,1.36439380000229,1.514363800000865,1.6643498000048567,1.8143433000077493,1.964336800010642,2.1143146000104025,320.5109366000106,None,320.5109366000106,None,322.7942800000019,None,322.7942800000019,None,left,0.35531330000958405,322.7942800000019,None,323.19418730000325,None,323.19418730000325,None,right,0.18738760000269394,323.19418730000325,None,2.264319100009743,,001,2021_Mar_17_1206,AB_pic,2020.2.10,59.985735395237384,
AB,lag5,5,3,8,0.1,0.05,0.2,main,,,,,0,24,24,24,,,,,,,eiffeltower.jpg,skateboard.jpg,arrow02.jpg,footballhelmet.jpg,frisbee.jpg,ipad02.jpg,crosscountryski.jpg,baseballbat.jpg,corn02.jpg,seal.jpg,uprightpiano01.jpg,bench01.jpg,jackrabbit.jpg,electrictoothbrush01c.jpg,panda.jpg,cobra.jpg,peacock.jpg,,,,,,,0,0,10,,,,,.\resources\baseballbat.jpg,,,1,,,,,,,,,1,,,,,,,,,328.76040141000703,None,None,328.76040141000703,None,,,,,,,323.4274126000091,326.17763659999764,323.4274126000091,326.17763659999764,325.9108869000047,None,0.16423629999917466,0.31427020000410266,0.463773499999661,0.6137634999904549,0.7637512999936007,0.9137861999915913,1.063775100003113,1.2137435999902664,1.363729799995781,1.513810199990985,1.6637301000009757,,,,326.41050610000093,None,326.41050610000093,None,328.0937096999987,None,328.0937096999987,None,right,0.4478979999985313,328.0937096999987,None,328.57719660000294,None,328.57719660000294,None,right,0.16439459999674,328.57719660000294,None,,,001,2021_Mar_17_1206,AB_pic,2020.2.10,59.985735395237384,
AB,lag3,3,3,6,0.1,0.05,0.2,main,,,,,0,25,25,25,,,,,,,bench01.jpg,crosscountryski.jpg,donut.jpg,jackrabbit.jpg,chefshat.jpg,nosmokingsign.jpg,electrictoothbrush01c.jpg,helicopter.jpg,cheetah.jpg,chimney.jpg,hotdogweiner.jpg,cobra.jpg,eiffeltower.jpg,baseballbat.jpg,corn02.jpg,ipad02.jpg,panda.jpg,,,,,,,1,1,8,,,,,.\resources\nosmokingsign.jpg,,,1,,,,,,,,,1,,,,,,,,,334.1433492100041,None,None,334.1433492100041,None,,,,,,,328.77714760000526,331.5272138,328.77714760000526,331.5272138,331.2605876000016,None,0.16443900000012945,0.31400110000686254,0.46441920001234394,0.6144234000094002,0.7646105000021635,0.9144137000112096,1.0644295000092825,1.213962400011951,1.3639758000063011,,,,,,331.76016060000984,None,331.76016060000984,None,333.1434147000109,None,333.1434147000109,None,left,0.7421903000067687,333.1434147000109,None,333.9266861000069,None,333.9266861000069,None,left,0.19886249999399297,333.9266861000069,None,,,001,2021_Mar_17_1206,AB_pic,2020.2.10,59.985735395237384,
AB,lag2,2,3,5,0.1,0.05,0.2,main,,,,,0,26,26,26,,,,,,,skateboard.jpg,hotdogweiner.jpg,peacock.jpg,chefshat.jpg,crosscountryski.jpg,cloud.jpg,helicopter.jpg,jackrabbit.jpg,electrictoothbrush01c.jpg,frisbee.jpg,ipad02.jpg,footballhelmet.jpg,uprightpiano01.jpg,baseballbat.jpg,donut.jpg,bench01.jpg,ladder.jpg,,,,,,,0,0,7,,,,,.\resources\crosscountryski.jpg,,,1,,,,,,,,,0,,,,,,,,,339.74293100999785,None,None,339.74293100999785,None,,,,,,,334.1601770999987,336.9102333000046,334.1601770999987,336.9102333000046,336.6435674000095,None,0.16431000000739004,0.31429140000545885,0.4642842000030214,0.6143050999962725,0.7638335999945411,0.9138497999956599,1.063815400004387,1.2138451000064379,,,,,,,337.1431784000015,None,337.1431784000015,None,338.37649809999857,None,338.37649809999857,None,right,1.1490750000084518,338.37649809999857,None,339.55978960001084,None,339.55978960001084,None,left,0.15779050000128336,339.55978960001084,None,,,001,2021_Mar_17_1206,AB_pic,2020.2.10,59.985735395237384,
AB,lag1,1,5,6,0.1,0.05,0.2,main,,,,,0,27,27,27,,,,,,,ladder.jpg,knee.jpg,skateboard.jpg,corn02.jpg,uprightpiano01.jpg,helicopter.jpg,peacock.jpg,panda.jpg,cheetah.jpg,cobra.jpg,baseballbat.jpg,chimney.jpg,bench01.jpg,kite.jpg,frisbee.jpg,chefshat.jpg,jackrabbit.jpg,,,,,,,0,0,8,,,,,.\resources\helicopter.jpg,,,1,,,,,,,,,0,,,,,,,,,346.0259065100108,None,None,346.0259065100108,None,,,,,,,339.75973520000116,342.50986610000837,339.75973520000116,342.50986610000837,342.24323800001,None,0.16459309999481775,0.3145783000072697,0.4645368000055896,0.6145857000083197,0.7645743000030052,0.9145223999948939,1.0645477000070969,1.2140706000063801,1.3641368999960832,,,,,,342.7427347000048,None,342.7427347000048,None,344.1261252000113,None,344.1261252000113,None,right,1.6874620000016876,344.1261252000113,None,345.8425530000095,None,345.8425530000095,None,left,0.16307389999565203,345.8425530000095,None,,,001,2021_Mar_17_1206,AB_pic,2020.2.10,59.985735395237384,
AB,lag4,4,5,9,0.1,0.05,0.2,main,,,,,0,28,28,28,,,,,,,cloud.jpg,cobra.jpg,baseballbat.jpg,nosmokingsign.jpg,jackrabbit.jpg,seal.jpg,eiffeltower.jpg,chimney.jpg,bench01.jpg,cheetah.jpg,lily.jpg,crosscountryski.jpg,panda.jpg,electrictoothbrush01c.jpg,footballhelmet.jpg,corn02.jpg,ipad02.jpg,,,,,,,0,0,11,,,,,.\resources\bench01.jpg,,,1,,,,,,,,,1,,,,,,,,,351.42553401000623,None,None,351.42553401000623,None,,,,,,,346.0425629000092,348.79279659999884,346.0425629000092,348.79279659999884,348.526154200008,None,0.16446679999353364,0.31443399999989197,0.46439470000041183,0.6143456999998307,0.7643567999912193,0.9139476999989711,1.0639548000035575,1.2139460000034887,1.3639266999962274,1.513898599994718,1.663837699990836,1.813864099996863,,,349.02568980000797,None,349.02568980000797,None,350.85886120000214,None,350.85886120000214,None,right,0.33871429999999236,350.85886120000214,None,351.24234250000154,None,351.24234250000154,None,right,0.15522660000715405,351.24234250000154,None,,,001,2021_Mar_17_1206,AB_pic,2020.2.10,59.985735395237384,
AB,lag3,3,4,7,0.1,0.05,0.2,main,,,,,0,29,29,29,,,,,,,nosmokingsign.jpg,arrow02.jpg,corn02.jpg,seal.jpg,kite.jpg,eiffeltower.jpg,chimney.jpg,baseballbat.jpg,jackrabbit.jpg,cobra.jpg,frenchfries.jpg,crosscountryski.jpg,hotdogweiner.jpg,panda.jpg,cloud.jpg,footballhelmet.jpg,cheetah.jpg,,,,,,,0,0,9,,,,,.\resources\chimney.jpg,,,1,,,,,,,,,1,,,,,,,,,356.5585293100012,None,None,356.5585293100012,None,,,,,,,351.44219149999844,354.19253169999865,351.44219149999844,354.19253169999865,353.9259667000006,None,0.16397809999762103,0.313920100001269,0.46389719999569934,0.6139256000024034,0.7639100999949733,0.9139128999959212,1.063889700002619,1.213870699997642,1.3638568000023952,1.5138764000002993,,,,,354.44256910000695,None,354.44256910000695,None,355.9587709000043,None,355.9587709000043,None,right,0.35080240000388585,355.9587709000043,None,356.34187630000815,None,356.34187630000815,None,right,0.1996900999947684,356.34187630000815,None,,,001,2021_Mar_17_1206,AB_pic,2020.2.10,59.985735395237384,
AB,lag1,1,4,5,0.1,0.05,0.2,main,,,,,0,30,30,30,,,,,,,chimney.jpg,eiffeltower.jpg,peacock.jpg,cheetah.jpg,uprightpiano01.jpg,baseballbat.jpg,panda.jpg,helicopter.jpg,electrictoothbrush01c.jpg,jackrabbit.jpg,chefshat.jpg,frisbee.jpg,donut.jpg,arrow02.jpg,seal.jpg,nosmokingsign.jpg,ipad02.jpg,,,,,,,0,1,7,,,,,.\resources\uprightpiano01.jpg,,,1,,,,,,,,,1,,,,,,,,,362.09148360999825,None,None,362.09148360999825,None,,,,,,,356.5751758000115,359.32500399999844,356.5751758000115,359.32500399999844,359.0583972000022,None,0.16442840000672732,0.31441600000835024,0.464427800005069,0.6143982000066899,0.7643730999989202,0.9143864000070607,1.0643400999979349,1.2144038999977056,,,,,,,359.55831160000525,None,359.55831160000525,None,360.7917543000076,None,360.7917543000076,None,right,1.1498583000065992,360.7917543000076,None,361.9747946999996,None,361.9747946999996,None,left,0.08674759999848902,361.9747946999996,None,,,001,2021_Mar_17_1206,AB_pic,2020.2.10,59.985735395237384,
AB,lag4,4,5,9,0.1,0.05,0.2,main,,,,,0,31,31,31,,,,,,,arrow02.jpg,eiffeltower.jpg,panda.jpg,uprightpiano01.jpg,knee.jpg,cheetah.jpg,peacock.jpg,helicopter.jpg,frenchfries.jpg,ipad02.jpg,lily.jpg,cloud.jpg,jackrabbit.jpg,frisbee.jpg,nosmokingsign.jpg,hotdogweiner.jpg,baseballbat.jpg,,,,,,,0,0,11,,,,,.\resources\frenchfries.jpg,,,1,,,,,,,,,1,,,,,,,,,367.4744535100035,None,None,367.4744535100035,None,,,,,,,362.10818799999834,364.85799080001016,362.10818799999834,364.85799080001016,364.59135820000665,None,0.1645868000050541,0.3145675000123447,0.46458060000441037,0.6145806000131415,0.7645199000107823,0.9145211000140989,1.0645538000098895,1.2145264000137104,1.3645216000004439,1.5144619000056991,1.6644985000020824,1.8144991000008304,,,365.09131070000876,None,365.09131070000876,None,366.9246586000081,None,366.9246586000081,None,right,0.36094270000467077,366.9246586000081,None,367.3244902000006,None,367.3244902000006,None,right,0.12906770000699908,367.3244902000006,None,,,001,2021_Mar_17_1206,AB_pic,2020.2.10,59.985735395237384,
AB,lag6,6,3,9,0.1,0.05,0.2,main,,,,,0,32,32,32,,,,,,,baseballbat.jpg,uprightpiano01.jpg,cloud.jpg,corn02.jpg,chefshat.jpg,crosscountryski.jpg,eiffeltower.jpg,knee.jpg,ladder.jpg,ipad02.jpg,frisbee.jpg,skateboard.jpg,arrow02.jpg,cheetah.jpg,donut.jpg,nosmokingsign.jpg,cobra.jpg,,,,,,,0,1,11,,,,,.\resources\ladder.jpg,,,0,,,,,,,,,1,,,,,,,,,374.1240225100046,None,None,374.1240225100046,None,,,,,,,367.4912602000113,370.24097920001077,367.4912602000113,370.24097920001077,369.9743337000109,None,0.1642786000011256,0.3142202000017278,0.46425879999878816,0.614287600008538,0.7643158999999287,0.9142353000061121,1.0641714000084903,1.214170400009607,1.3641875000030268,1.5141654000035487,1.6641692999983206,1.8143208999972558,,,370.47429060000286,None,370.47429060000286,None,372.3075161000015,None,372.3075161000015,None,left,1.0980379999964498,372.3075161000015,None,373.42404690000694,None,373.42404690000694,None,left,0.6695500999921933,373.42404690000694,None,,,001,2021_Mar_17_1206,AB_pic,2020.2.10,59.985735395237384,
AB,lag2,2,3,5,0.1,0.05,0.2,main,,,,,0,33,33,33,,,,,,,baseballbat.jpg,electrictoothbrush01c.jpg,ipad02.jpg,peacock.jpg,ladder.jpg,chefshat.jpg,uprightpiano01.jpg,panda.jpg,corn02.jpg,donut.jpg,bench01.jpg,helicopter.jpg,lily.jpg,frisbee.jpg,jackrabbit.jpg,frenchfries.jpg,knee.jpg,,,,,,,0,1,7,,,,,.\resources\ladder.jpg,,,1,,,,,,,,,1,,,,,,,,,379.673676410006,None,None,379.673676410006,None,,,,,,,374.14069330001075,376.8909091000096,374.14069330001075,376.8909091000096,376.6238574000017,None,0.16426469999714755,0.31423350000113714,0.46421569999074563,0.6142091999936383,0.7637944000016432,0.9138032999908319,1.0637640999921132,1.2137412000010954,,,,,,,377.12383290000434,None,377.12383290000434,None,378.3572006000031,None,378.3572006000031,None,right,1.0723884000035468,378.3572006000031,None,379.4736361000105,None,379.4736361000105,None,left,0.17192180000711232,379.4736361000105,None,,,001,2021_Mar_17_1206,AB_pic,2020.2.10,59.985735395237384,
AB,lag5,5,4,9,0.1,0.05,0.2,main,,,,,0,34,34,34,,,,,,,peacock.jpg,frisbee.jpg,cloud.jpg,bench01.jpg,baseballbat.jpg,chimney.jpg,cheetah.jpg,seal.jpg,knee.jpg,hotdogweiner.jpg,footballhelmet.jpg,nosmokingsign.jpg,frenchfries.jpg,corn02.jpg,crosscountryski.jpg,kite.jpg,uprightpiano01.jpg,,,,,,,0,0,11,,,,,.\resources\knee.jpg,,,1,,,,,,,,,1,,,,,,,,,385.10664921000716,None,None,385.10664921000716,None,,,,,,,379.6903141000075,382.44054640000104,379.6903141000075,382.44054640000104,382.1739072000055,None,0.16510380001273006,0.3146861999994144,0.46467430000484455,0.6146697000076529,0.7646685000072466,0.9146399000019301,1.0646345999994082,1.214787000004435,1.3648396000062348,1.5146041000116384,1.6645772000047145,1.8145758000027854,,,382.6734518000012,None,382.6734518000012,None,384.50682020001113,None,384.50682020001113,None,right,0.36278139999194536,384.50682020001113,None,384.90668410000217,None,384.90668410000217,None,right,0.17106300000159536,384.90668410000217,None,,,001,2021_Mar_17_1206,AB_pic,2020.2.10,59.985735395237384,
AB,lag7,7,5,12,0.1,0.05,0.2,main,,,,,0,35,35,35,,,,,,,lily.jpg,cobra.jpg,eiffeltower.jpg,knee.jpg,helicopter.jpg,hotdogweiner.jpg,corn02.jpg,panda.jpg,ipad02.jpg,electrictoothbrush01c.jpg,skateboard.jpg,baseballbat.jpg,frenchfries.jpg,frisbee.jpg,chimney.jpg,peacock.jpg,cheetah.jpg,,,,,,,1,1,14,,,,,.\resources\baseballbat.jpg,,,1,,,,,,,,,1,,,,,,,,,391.9395071100007,None,None,391.9395071100007,None,,,,,,,385.12345050000295,387.87353920000896,385.12345050000295,387.87353920000896,387.60689160000766,None,0.16346150000754278,0.3138881000049878,0.4640908000001218,0.6138498000073014,0.7634252999996534,0.9134175000071991,1.0634243000095012,1.2133923000073992,1.3633941000007326,1.5133866999967722,1.6633826000033878,1.813394299999345,1.9633461000048555,2.1133310000004712,388.12352200000896,None,388.12352200000896,None,390.3897517000005,None,390.3897517000005,None,left,0.9199003999965498,390.3897517000005,None,391.3562246000074,None,391.3562246000074,None,left,0.5533408999908715,391.3562246000074,None,2.263324300001841,,001,2021_Mar_17_1206,AB_pic,2020.2.10,59.985735395237384,
AB,lag5,5,5,10,0.1,0.05,0.2,main,,,,,0,36,36,36,,,,,,,chimney.jpg,donut.jpg,seal.jpg,baseballbat.jpg,crosscountryski.jpg,knee.jpg,frenchfries.jpg,uprightpiano01.jpg,lily.jpg,ladder.jpg,frisbee.jpg,kite.jpg,electrictoothbrush01c.jpg,helicopter.jpg,nosmokingsign.jpg,eiffeltower.jpg,jackrabbit.jpg,,,,,,,0,0,12,,,,,.\resources\ladder.jpg,,,1,,,,,,,,,1,,,,,,,,,397.50583491,None,None,397.50583491,None,,,,,,,391.9561831000028,394.70642410000437,391.9561831000028,394.70642410000437,394.43975960000535,None,0.16410490000271238,0.31441030000860337,0.4644807000004221,0.6143978000036441,0.7644667999993544,0.9144557000108762,1.0639684000052512,1.2139601000089897,1.363978200010024,1.514002200012328,1.6639062000031117,1.8139247000071919,1.963924700001371,,394.9393240000063,None,394.9393240000063,None,396.9225271000032,None,396.9225271000032,None,right,0.33921819999522995,396.9225271000032,None,397.30596470000455,None,397.30596470000455,None,right,0.17204790000687353,397.30596470000455,None,,,001,2021_Mar_17_1206,AB_pic,2020.2.10,59.985735395237384,
AB,lag7,7,3,10,0.1,0.05,0.2,main,,,,,0,37,37,37,,,,,,,jackrabbit.jpg,baseballbat.jpg,arrow02.jpg,chefshat.jpg,seal.jpg,hotdogweiner.jpg,crosscountryski.jpg,helicopter.jpg,kite.jpg,frisbee.jpg,corn02.jpg,cobra.jpg,eiffeltower.jpg,cloud.jpg,chimney.jpg,donut.jpg,knee.jpg,,,,,,,0,1,12,,,,,.\resources\frisbee.jpg,,,1,,,,,,,,,1,,,,,,,,,403.70539331001055,None,None,403.70539331001055,None,,,,,,,397.5224750000052,400.2727648,397.5224750000052,400.2727648,399.9894561999972,None,0.1648614000005182,0.31486389999918174,0.46440399999846704,0.6144125999999233,0.7643960999994306,0.9143611999897985,1.0643800999969244,1.2143628999911016,1.364323699992383,1.5143411999888485,1.6643805999920005,1.814362399993115,1.964305899993633,,400.4889794000046,None,400.4889794000046,None,402.4722044000082,None,402.4722044000082,None,right,1.0855729000031715,402.4722044000082,None,403.6054607999977,None,403.6054607999977,None,left,0.07236540000303648,403.6054607999977,None,,,001,2021_Mar_17_1206,AB_pic,2020.2.10,59.985735395237384,
AB,lag4,4,3,7,0.1,0.05,0.2,main,,,,,0,38,38,38,,,,,,,corn02.jpg,frisbee.jpg,donut.jpg,chimney.jpg,lily.jpg,footballhelmet.jpg,eiffeltower.jpg,helicopter.jpg,nosmokingsign.jpg,ladder.jpg,cobra.jpg,jackrabbit.jpg,knee.jpg,baseballbat.jpg,peacock.jpg,kite.jpg,arrow02.jpg,,,,,,,0,1,9,,,,,.\resources\eiffeltower.jpg,,,1,,,,,,,,,1,,,,,,,,,409.38837571001204,None,None,409.38837571001204,None,,,,,,,403.7220875000057,406.47191780000867,403.7220875000057,406.47191780000867,406.2052442999993,None,0.1647674999985611,0.3147413999977289,0.4647508000052767,0.6147560000099475,0.7646833000035258,0.9147230000089621,1.0647409000084735,1.2147197000012966,1.364696400007233,1.514627600001404,,,,,406.7052337000059,None,406.7052337000059,None,408.2384686000005,None,408.2384686000005,None,right,0.9991003000031924,408.2384686000005,None,409.25502310000593,None,409.25502310000593,None,left,0.11054710000462364,409.25502310000593,None,,,001,2021_Mar_17_1206,AB_pic,2020.2.10,59.985735395237384,
AB,lag3,3,5,8,0.1,0.05,0.2,main,,,,,0,39,39,39,,,,,,,panda.jpg,corn02.jpg,cobra.jpg,cloud.jpg,jackrabbit.jpg,crosscountryski.jpg,lily.jpg,skateboard.jpg,uprightpiano01.jpg,ladder.jpg,cheetah.jpg,seal.jpg,hotdogweiner.jpg,donut.jpg,chimney.jpg,knee.jpg,frisbee.jpg,,,,,,,0,0,10,,,,,.\resources\skateboard.jpg,,,1,,,,,,,,,1,,,,,,,,,414.8047126099991,None,None,414.8047126099991,None,,,,,,,409.40504959999816,412.1552980999986,409.40504959999816,412.1552980999986,411.88861030001135,None,0.16432480000366922,0.3139085000002524,0.4643138999963412,0.613887400002568,0.7638799999986077,0.9138672999979462,1.0638499000051524,1.2138986000063596,1.3638492000027327,1.513835999998264,1.6638022999977693,,,,412.38814860000275,None,412.38814860000275,None,414.0715358000016,None,414.0715358000016,None,right,0.50203980000515,414.0715358000016,None,414.6047152000101,None,414.6047152000101,None,right,0.16878549999091774,414.6047152000101,None,,,001,2021_Mar_17_1206,AB_pic,2020.2.10,59.985735395237384,
AB,lag2,2,4,6,0.1,0.05,0.2,main,,,,,0,40,40,40,,,,,,,cobra.jpg,hotdogweiner.jpg,ladder.jpg,donut.jpg,bench01.jpg,knee.jpg,eiffeltower.jpg,jackrabbit.jpg,skateboard.jpg,chefshat.jpg,cloud.jpg,uprightpiano01.jpg,helicopter.jpg,crosscountryski.jpg,seal.jpg,chimney.jpg,frisbee.jpg,,,,,,,0,0,8,,,,,.\resources\knee.jpg,,,1,,,,,,,,,1,,,,,,,,,419.7710002100066,None,None,419.7710002100066,None,,,,,,,414.82137820000935,417.5715654000087,414.82137820000935,417.5715654000087,417.304905099998,None,0.16502329999639187,0.3150061999913305,0.4650307999982033,0.6150000999914482,0.7649817999918014,0.9149960999930045,1.0649662999931024,1.2145770999923116,1.364515699999174,,,,,,417.8044300000038,None,417.8044300000038,None,419.18768750000163,None,419.18768750000163,None,right,0.3783823999983724,419.18768750000163,None,419.6044406000001,None,419.6044406000001,None,right,0.13722160000179429,419.6044406000001,None,,,001,2021_Mar_17_1206,AB_pic,2020.2.10,59.985735395237384,
AB,lag1,1,4,5,0.1,0.05,0.2,main,,,,,0,41,41,41,,,,,,,cheetah.jpg,peacock.jpg,nosmokingsign.jpg,ladder.jpg,ipad02.jpg,lily.jpg,uprightpiano01.jpg,skateboard.jpg,cloud.jpg,chefshat.jpg,hotdogweiner.jpg,corn02.jpg,arrow02.jpg,jackrabbit.jpg,panda.jpg,knee.jpg,seal.jpg,,,,,,,0,0,7,,,,,.\resources\ipad02.jpg,,,1,,,,,,,,,0,,,,,,,,,425.5705879099987,None,None,425.5705879099987,None,,,,,,,419.78770250000525,422.5379079999984,419.78770250000525,422.5379079999984,422.27126160000626,None,0.1649016000010306,0.3149159999884432,0.4648655999917537,0.6148518999980297,0.764874399988912,0.9148442000005161,1.0648230999941006,1.214375099996687,,,,,,,422.77080430000206,None,422.77080430000206,None,424.0040477000002,None,424.0040477000002,None,right,1.2415746999904513,424.0040477000002,None,425.2874414000107,None,425.2874414000107,None,left,0.254075599994394,425.2874414000107,None,,,001,2021_Mar_17_1206,AB_pic,2020.2.10,59.985735395237384,
AB,lag6,6,5,11,0.1,0.05,0.2,main,,,,,0,42,42,42,,,,,,,donut.jpg,crosscountryski.jpg,footballhelmet.jpg,helicopter.jpg,ladder.jpg,lily.jpg,corn02.jpg,uprightpiano01.jpg,frenchfries.jpg,peacock.jpg,jackrabbit.jpg,ipad02.jpg,bench01.jpg,cobra.jpg,panda.jpg,cloud.jpg,cheetah.jpg,,,,,,,0,1,13,,,,,.\resources\jackrabbit.jpg,,,1,,,,,,,,,1,,,,,,,,,432.30352000999846,None,None,432.30352000999846,None,,,,,,,425.5872798000055,428.3375066000008,425.5872798000055,428.3375066000008,428.07087070000125,None,0.16447250000783242,0.31407590000890195,0.4640195000101812,0.6140371000074083,0.7640082000143593,0.9140369000087958,1.0639866000128677,1.2140021000086563,1.3639800000091782,1.5140043999999762,1.6639529000094626,1.8138962000084575,1.9639135000034003,2.113914500005194,428.57041880000907,None,428.57041880000907,None,430.7036085,None,430.7036085,None,right,1.3099160999991,430.7036085,None,432.0368993000011,None,432.0368993000011,None,left,0.2486841999925673,432.0368993000011,None,,,001,2021_Mar_17_1206,AB_pic,2020.2.10,59.985735395237384,
AB,lag5,5,5,10,0.1,0.05,0.2,main,,,,,0,43,43,43,,,,,,,baseballbat.jpg,cobra.jpg,skateboard.jpg,crosscountryski.jpg,ipad02.jpg,cheetah.jpg,hotdogweiner.jpg,ladder.jpg,frisbee.jpg,jackrabbit.jpg,corn02.jpg,eiffeltower.jpg,nosmokingsign.jpg,donut.jpg,helicopter.jpg,footballhelmet.jpg,peacock.jpg,,,,,,,0,0,12,,,,,.\resources\jackrabbit.jpg,,,1,,,,,,,,,1,,,,,,,,,437.8365481100045,None,None,437.8365481100045,None,,,,,,,432.3201765999984,435.07037950000085,432.3201765999984,435.07037950000085,434.80334030000085,None,0.16513300000224262,0.31504810000478756,0.4650467000028584,0.6146121000056155,0.7646155999973416,0.9146232999919448,1.0645942999981344,1.2146340000035707,1.3645351000013761,1.5145710999931907,1.6645465000037802,1.8145359000045573,1.9645680999965407,,435.3033157000027,None,435.3033157000027,None,437.2866498000076,None,437.2866498000076,None,right,0.32742669999424834,437.2866498000076,None,437.6531535000104,None,437.6531535000104,None,right,0.15236809999623802,437.6531535000104,None,,,001,2021_Mar_17_1206,AB_pic,2020.2.10,59.985735395237384,
AB,lag7,7,5,12,0.1,0.05,0.2,main,,,,,0,44,44,44,,,,,,,frisbee.jpg,panda.jpg,crosscountryski.jpg,cobra.jpg,kite.jpg,bench01.jpg,lily.jpg,electrictoothbrush01c.jpg,ipad02.jpg,eiffeltower.jpg,chimney.jpg,nosmokingsign.jpg,arrow02.jpg,helicopter.jpg,knee.jpg,chefshat.jpg,jackrabbit.jpg,,,,,,,0,0,14,,,,,.\resources\nosmokingsign.jpg,,,1,,,,,,,,,1,,,,,,,,,444.0193848100025,None,None,444.0193848100025,None,,,,,,,437.8531575000088,440.6033738999977,437.8531575000088,440.6033738999977,440.3367178000044,None,0.1643370999954641,0.3143298000068171,0.4643560999975307,0.6143688000011025,0.7643070000049192,0.914334900007816,1.0638787000061711,1.213827700004913,1.3638529000018025,1.5138184999959776,1.66382450000674,1.8138121999945724,1.9638207999960287,2.113826400003745,440.8362586000003,None,440.8362586000003,None,443.11959280000883,None,443.11959280000883,None,right,0.5819476000033319,443.11959280000883,None,443.73608450000756,None,443.73608450000756,None,right,0.2615042999968864,443.73608450000756,None,2.263803399997414,,001,2021_Mar_17_1206,AB_pic,2020.2.10,59.985735395237384,
AB,lag3,3,4,7,0.1,0.05,0.2,main,,,,,0,45,45,45,,,,,,,cobra.jpg,nosmokingsign.jpg,hotdogweiner.jpg,lily.jpg,arrow02.jpg,ipad02.jpg,corn02.jpg,jackrabbit.jpg,kite.jpg,baseballbat.jpg,knee.jpg,footballhelmet.jpg,peacock.jpg,uprightpiano01.jpg,skateboard.jpg,seal.jpg,electrictoothbrush01c.jpg,,,,,,,0,1,9,,,,,.\resources\corn02.jpg,,,1,,,,,,,,,1,,,,,,,,,450.03565330999845,None,None,450.03565330999845,None,,,,,,,444.03604990000895,446.78628810000373,444.03604990000895,446.78628810000373,446.51968360001047,None,0.16423290000238921,0.3142440999945393,0.4642344000021694,0.6142188999947393,0.7641900000016904,0.9137760000012349,1.0637645999959204,1.2137501999968663,1.3637059000029694,1.5137185999919893,,,,,447.0192096000101,None,447.0192096000101,None,448.55262709999806,None,448.55262709999806,None,right,1.1968943999963813,448.55262709999806,None,449.7690091000113,None,449.7690091000113,None,left,0.2364779999916209,449.7690091000113,None,,,001,2021_Mar_17_1206,AB_pic,2020.2.10,59.985735395237384,
AB,lag2,2,5,7,0.1,0.05,0.2,main,,,,,0,46,46,46,,,,,,,eiffeltower.jpg,uprightpiano01.jpg,peacock.jpg,helicopter.jpg,bench01.jpg,jackrabbit.jpg,lily.jpg,frenchfries.jpg,cloud.jpg,cobra.jpg,frisbee.jpg,skateboard.jpg,electrictoothbrush01c.jpg,knee.jpg,crosscountryski.jpg,footballhelmet.jpg,donut.jpg,,,,,,,0,0,9,,,,,.\resources\lily.jpg,,,1,,,,,,,,,1,,,,,,,,,455.20205041000736,None,None,455.20205041000736,None,,,,,,,450.05232350000006,452.8026918000105,450.05232350000006,452.8026918000105,452.53606080000463,None,0.16415349999442697,0.31413030000112485,0.4641259999916656,0.6141306999925291,0.7640911999915261,0.9140972000022884,1.0641013999993447,1.2140913999901386,1.364127799999551,1.514084599999478,,,,,453.03553760000796,None,453.03553760000796,None,454.5689968000079,None,454.5689968000079,None,right,0.412515899995924,454.5689968000079,None,455.0187130999984,None,455.0187130999984,None,right,0.16280900000128895,455.0187130999984,None,,,001,2021_Mar_17_1206,AB_pic,2020.2.10,59.985735395237384,
AB,lag6,6,5,11,0.1,0.05,0.2,main,,,,,0,47,47,47,,,,,,,electrictoothbrush01c.jpg,peacock.jpg,uprightpiano01.jpg,baseballbat.jpg,cobra.jpg,hotdogweiner.jpg,nosmokingsign.jpg,knee.jpg,footballhelmet.jpg,panda.jpg,chimney.jpg,eiffeltower.jpg,frenchfries.jpg,jackrabbit.jpg,bench01.jpg,kite.jpg,skateboard.jpg,,,,,,,1,0,13,,,,,.\resources\chimney.jpg,,,1,,,,,,,,,0,,,,,,,,,461.91821121000976,None,None,461.91821121000976,None,,,,,,,455.21883890000754,457.9685185999988,455.21883890000754,457.9685185999988,457.701910600008,None,0.16471610000007786,0.3146829000033904,0.46475400000053924,0.614706299995305,0.7647142999921925,0.9146944999956759,1.0646612999989884,1.2146266999916406,1.3646174000023166,1.5146362999948906,1.6646288999909302,1.814614499991876,1.9646334999997634,2.114682899991749,458.2017608000024,None,458.2017608000024,None,460.3350553000055,None,460.3350553000055,None,left,1.2784305000095628,460.3350553000055,None,461.63491190000786,None,461.63491190000786,None,left,0.2585438000096474,461.63491190000786,None,,,001,2021_Mar_17_1206,AB_pic,2020.2.10,59.985735395237384,
AB,lag1,1,4,5,0.1,0.05,0.2,main,,,,,0,48,48,48,,,,,,,panda.jpg,uprightpiano01.jpg,arrow02.jpg,kite.jpg,knee.jpg,crosscountryski.jpg,cloud.jpg,lily.jpg,chefshat.jpg,ipad02.jpg,jackrabbit.jpg,cheetah.jpg,bench01.jpg,eiffeltower.jpg,corn02.jpg,hotdogweiner.jpg,frenchfries.jpg,,,,,,,0,0,7,,,,,.\resources\knee.jpg,,,1,,,,,,,,,1,,,,,,,,,467.13449481000134,None,None,467.13449481000134,None,,,,,,,461.93485930000315,464.68512080000073,461.93485930000315,464.68512080000073,464.4185160000052,None,0.16425629999139346,0.3142438999930164,0.4641692000004696,0.6142052999930456,0.7642005999950925,0.9141931000049226,1.0638436000008369,1.2138237000035588,,,,,,,464.918021400008,None,464.918021400008,None,466.15141669999866,None,466.15141669999866,None,right,0.7580697999947006,466.15141669999866,None,466.9514047999983,None,466.9514047999983,None,right,0.1580592000100296,466.9514047999983,None,,,001,2021_Mar_17_1206,AB_pic,2020.2.10,59.985735395237384,
AB,lag4,4,3,7,0.1,0.05,0.2,main,,,,,0,49,49,49,,,,,,,corn02.jpg,cheetah.jpg,panda.jpg,frenchfries.jpg,kite.jpg,frisbee.jpg,eiffeltower.jpg,ladder.jpg,knee.jpg,footballhelmet.jpg,crosscountryski.jpg,hotdogweiner.jpg,seal.jpg,peacock.jpg,chefshat.jpg,arrow02.jpg,jackrabbit.jpg,,,,,,,0,1,9,,,,,.\resources\eiffeltower.jpg,,,1,,,,,,,,,1,,,,,,,,,472.8675054100022,None,None,472.8675054100022,None,,,,,,,467.15120790000947,469.9014415999991,467.15120790000947,469.9014415999991,469.634753300008,None,0.16456400000606664,0.31451599999854807,0.4645065000077011,0.6144740000017919,0.7641521000041394,0.9140991000022041,1.0640385000006063,1.2140886999986833,1.3640255000063917,1.5140533999947365,,,,,470.13430700000026,None,470.13430700000026,None,471.6677167000016,None,471.6677167000016,None,right,0.985786500008544,471.6677167000016,None,472.70082720000937,None,472.70082720000937,None,left,0.13668409999809228,472.70082720000937,None,,,001,2021_Mar_17_1206,AB_pic,2020.2.10,59.985735395237384,
AB,lag3,3,4,7,0.1,0.05,0.2,main,,,,,0,50,50,50,,,,,,,footballhelmet.jpg,hotdogweiner.jpg,uprightpiano01.jpg,skateboard.jpg,bench01.jpg,kite.jpg,nosmokingsign.jpg,peacock.jpg,cobra.jpg,eiffeltower.jpg,cheetah.jpg,chefshat.jpg,electrictoothbrush01c.jpg,jackrabbit.jpg,panda.jpg,corn02.jpg,lily.jpg,,,,,,,0,0,9,,,,,.\resources\nosmokingsign.jpg,,,1,,,,,,,,,1,,,,,,,,,478.3838086100004,None,None,478.3838086100004,None,,,,,,,472.8842571999994,475.6343971000024,472.8842571999994,475.6343971000024,475.3677982000081,None,0.164264799997909,0.31420490000164136,0.4642558000050485,0.6142683000070974,0.7641584999946645,0.9142061000020476,1.0637107999937143,1.2137512000044808,1.363766599999508,1.5137279000045964,,,,,475.8672813000012,None,475.8672813000012,None,477.4006410000002,None,477.4006410000002,None,right,0.48483760000090115,477.4006410000002,None,477.93394820000685,None,477.93394820000685,None,right,0.4235441999917384,477.93394820000685,None,,,001,2021_Mar_17_1206,AB_pic,2020.2.10,59.985735395237384,
AB,lag7,7,5,12,0.1,0.05,0.2,main,,,,,0,51,51,51,,,,,,,chefshat.jpg,skateboard.jpg,cheetah.jpg,footballhelmet.jpg,chimney.jpg,frenchfries.jpg,seal.jpg,donut.jpg,nosmokingsign.jpg,electrictoothbrush01c.jpg,panda.jpg,hotdogweiner.jpg,knee.jpg,ipad02.jpg,uprightpiano01.jpg,helicopter.jpg,ladder.jpg,,,,,,,1,0,14,,,,,.\resources\hotdogweiner.jpg,,,1,,,,,,,,,1,,,,,,,,,484.5501151100034,None,None,484.5501151100034,None,,,,,,,478.400450000001,481.15069290000247,478.400450000001,481.15069290000247,480.884100100011,None,0.16424850000476,0.3142692999972496,0.4642679999960819,0.6138476000051014,0.7638756000087596,0.9138483999995515,1.0638091000000713,1.213797300006263,1.363796600009664,1.513799000007566,1.6637820000032661,1.8137338000087766,1.9637762000056682,2.11368819999916,481.3835933000082,None,481.3835933000082,None,483.6667723999999,None,483.6667723999999,None,left,0.642730899999151,483.6667723999999,None,484.3334296000103,None,484.3334296000103,None,right,0.19205779999902006,484.3334296000103,None,2.2637020999973174,,001,2021_Mar_17_1206,AB_pic,2020.2.10,59.985735395237384,
AB,lag1,1,5,6,0.1,0.05,0.2,main,,,,,0,52,52,52,,,,,,,skateboard.jpg,uprightpiano01.jpg,frisbee.jpg,corn02.jpg,kite.jpg,chimney.jpg,cobra.jpg,lily.jpg,knee.jpg,bench01.jpg,peacock.jpg,crosscountryski.jpg,footballhelmet.jpg,electrictoothbrush01c.jpg,hotdogweiner.jpg,nosmokingsign.jpg,donut.jpg,,,,,,,0,0,8,,,,,.\resources\chimney.jpg,,,1,,,,,,,,,0,,,,,,,,,490.3496689099993,None,None,490.3496689099993,None,,,,,,,484.5668999000045,487.3170548000053,484.5668999000045,487.3170548000053,487.05035980000685,None,0.16508340000291355,0.31502979999640957,0.4646993999922415,0.6146186999976635,0.7645675999956438,0.9145645999960834,1.0645339999900898,1.2145596999907866,1.3645627999940189,,,,,,487.54987250000704,None,487.54987250000704,None,488.93323140000575,None,488.93323140000575,None,right,1.1204296000069007,488.93323140000575,None,490.0996629000001,None,490.0996629000001,None,left,0.22579810000024736,490.0996629000001,None,,,001,2021_Mar_17_1206,AB_pic,2020.2.10,59.985735395237384,
AB,lag4,4,4,8,0.1,0.05,0.2,main,,,,,0,53,53,53,,,,,,,frenchfries.jpg,chefshat.jpg,uprightpiano01.jpg,cobra.jpg,jackrabbit.jpg,panda.jpg,electrictoothbrush01c.jpg,lily.jpg,frisbee.jpg,corn02.jpg,helicopter.jpg,bench01.jpg,donut.jpg,baseballbat.jpg,hotdogweiner.jpg,kite.jpg,cloud.jpg,,,,,,,0,0,10,,,,,.\resources\lily.jpg,,,1,,,,,,,,,1,,,,,,,,,495.6993609100027,None,None,495.6993609100027,None,,,,,,,490.366414300006,493.1165828000085,490.366414300006,493.1165828000085,492.849515000009,None,0.16459519999625627,0.31461590000253636,0.46458820000407286,0.614154700000654,0.7641524000064237,0.9141344000090612,1.0641327000048477,1.2141148000082467,1.3641110000025947,1.5140994999965187,1.664089600002626,,,,493.349472700007,None,493.349472700007,None,495.0328795000096,None,495.0328795000096,None,right,0.4525526999932481,495.0328795000096,None,495.5159966000065,None,495.5159966000065,None,right,0.15350060000491794,495.5159966000065,None,,,001,2021_Mar_17_1206,AB_pic,2020.2.10,59.985735395237384,
AB,lag6,6,5,11,0.1,0.05,0.2,main,,,,,0,54,54,54,,,,,,,corn02.jpg,skateboard.jpg,peacock.jpg,kite.jpg,cobra.jpg,eiffeltower.jpg,bench01.jpg,chefshat.jpg,footballhelmet.jpg,cheetah.jpg,donut.jpg,ladder.jpg,knee.jpg,arrow02.jpg,ipad02.jpg,jackrabbit.jpg,baseballbat.jpg,,,,,,,0,1,13,,,,,.\resources\donut.jpg,,,1,,,,,,,,,1,,,,,,,,,501.9989163100108,None,None,501.9989163100108,None,,,,,,,495.71617340001103,498.46629490000487,495.71617340001103,498.46629490000487,498.19963210000424,None,0.16461020000861026,0.31461110000964254,0.4645773000083864,0.6146042000036687,0.7645516000047792,0.9145053999964148,1.0645661000016844,1.2145377999986522,1.3645192999974824,1.514502400008496,1.664509199996246,1.8145271000103094,1.964510200006771,2.114505100005772,498.69913750000705,None,498.69913750000705,None,500.83240159999696,None,500.83240159999696,None,right,0.8930725999962306,500.83240159999696,None,501.76559819999966,None,501.76559819999966,None,left,0.21586199999728706,501.76559819999966,None,,,001,2021_Mar_17_1206,AB_pic,2020.2.10,59.985735395237384,
AB,lag2,2,4,6,0.1,0.05,0.2,main,,,,,0,55,55,55,,,,,,,knee.jpg,cloud.jpg,ipad02.jpg,cheetah.jpg,skateboard.jpg,crosscountryski.jpg,hotdogweiner.jpg,donut.jpg,jackrabbit.jpg,bench01.jpg,kite.jpg,cobra.jpg,corn02.jpg,frisbee.jpg,lily.jpg,footballhelmet.jpg,nosmokingsign.jpg,,,,,,,0,1,8,,,,,.\resources\crosscountryski.jpg,,,1,,,,,,,,,1,,,,,,,,,507.9318364100036,None,None,507.9318364100036,None,,,,,,,502.0155891000031,504.76538650000293,502.0155891000031,504.76538650000293,504.49875850000535,None,0.16450220000115223,0.31452459999127313,0.4644977999996627,0.6145453999924939,0.7645058999914909,0.9144729999970878,1.0644310999923619,1.2144509999925504,1.3643905999924755,,,,,,504.9987034000078,None,504.9987034000078,None,506.38197260000743,None,506.38197260000743,None,right,1.2075040000054287,506.38197260000743,None,507.61523979999765,None,507.61523979999765,None,left,0.29421089999959804,507.61523979999765,None,,,001,2021_Mar_17_1206,AB_pic,2020.2.10,59.985735395237384,
AB,lag5,5,4,9,0.1,0.05,0.2,main,,,,,0,56,56,56,,,,,,,chefshat.jpg,donut.jpg,bench01.jpg,panda.jpg,skateboard.jpg,hotdogweiner.jpg,crosscountryski.jpg,footballhelmet.jpg,uprightpiano01.jpg,jackrabbit.jpg,frenchfries.jpg,frisbee.jpg,lily.jpg,kite.jpg,eiffeltower.jpg,corn02.jpg,helicopter.jpg,,,,,,,0,0,11,,,,,.\resources\uprightpiano01.jpg,,,1,,,,,,,,,1,,,,,,,,,513.3315050100064,None,None,513.3315050100064,None,,,,,,,507.94865970000683,510.69874350000464,507.94865970000683,510.69874350000464,510.4320993000001,None,0.1646593000041321,0.3146792000043206,0.464636699995026,0.6146429000073113,0.764627800002927,0.9146381000027759,1.0641587999998592,1.214205199998105,1.3642360999947414,1.5142039000056684,1.6641726000088966,1.8141390999953728,,,510.9316191000107,None,510.9316191000107,None,512.7648886000097,None,512.7648886000097,None,right,0.3525138999975752,512.7648886000097,None,513.1648057999992,None,513.1648057999992,None,right,0.14465500001097098,513.1648057999992,None,,,001,2021_Mar_17_1206,AB_pic,2020.2.10,59.985735395237384,
AB,lag2,2,3,5,0.1,0.05,0.2,main,,,,,0,57,57,57,,,,,,,cloud.jpg,footballhelmet.jpg,eiffeltower.jpg,frenchfries.jpg,peacock.jpg,arrow02.jpg,frisbee.jpg,crosscountryski.jpg,knee.jpg,ladder.jpg,uprightpiano01.jpg,chefshat.jpg,helicopter.jpg,ipad02.jpg,seal.jpg,cheetah.jpg,panda.jpg,,,,,,,0,0,7,,,,,.\resources\peacock.jpg,,,1,,,,,,,,,1,,,,,,,,,518.7144844100112,None,None,518.7144844100112,None,,,,,,,513.3482555000082,516.0983880999993,513.3482555000082,516.0983880999993,515.8313287000055,None,0.16425499999604654,0.31420719999005087,0.4641659999906551,0.6137792999943485,0.7638057000003755,0.9137821999902371,1.0637583999923663,1.213741100000334,,,,,,,516.3312931999972,None,516.3312931999972,None,517.5645267000073,None,517.5645267000073,None,right,0.6969011000037426,517.5645267000073,None,518.297817300001,None,518.297817300001,None,right,0.3876280999975279,518.297817300001,None,,,001,2021_Mar_17_1206,AB_pic,2020.2.10,59.985735395237384,
,,,,,,,,,,,,,,,,,,,,,,,peacock.jpg,corn02.jpg,cheetah.jpg,crosscountryski.jpg,footballhelmet.jpg,arrow02.jpg,ladder.jpg,seal.jpg,chimney.jpg,frenchfries.jpg,baseballbat.jpg,helicopter.jpg,cloud.jpg,eiffeltower.jpg,lily.jpg,uprightpiano01.jpg,kite.jpg,,,,,,,0,0,13,,,,,.\resources\baseballbat.jpg,,,1,,,,,,,,,1,,,,,,,,,,,,,,,,,,,,518.7311449999979,521.4813537000009,518.7311449999979,521.4813537000009,521.2147138,None,0.1650793999870075,0.31523349999042694,0.4650727999978699,0.6150669999915408,0.7650316999934148,0.9150108999892836,1.064997499997844,1.2145736999955261,1.3645771999872522,1.5145587000006344,1.6645888999919407,1.8145318999886513,1.9645166999980574,2.1145503999869106,521.7142606999987,None,521.7142606999987,None,523.8474376000086,None,523.8474376000086,None,right,0.1660793999908492,523.8474376000086,None,524.0475727000012,None,524.0475727000012,None,right,0.1739069000032032,524.0475727000012,None,,,,,,,,
