trialType,cndTyp,lag,T1_loc,T2_loc,stimLen,isi,skipProb,phase,trials.thisRepN,trials.thisTrialN,trials.thisN,trials.thisIndex,trials2.thisRepN,trials2.thisTrialN,trials2.thisN,trials2.thisIndex,text_3.started,text_3.stopped,key_resp_4.keys,key_resp_4.rt,key_resp_4.started,key_resp_4.stopped,img0,img1,img2,img3,img4,img5,img6,img7,img8,img9,img10,img11,img12,img13,img14,img15,img16,option1.started,option1.stopped,option2.started,option2.stopped,text_2.started,text_2.stopped,skip1,skip2,lastPresent,displayPicture.started,displayPicture.stopped,polygon_2.started,polygon_2.stopped,opt1_t1,polygon_4.started,polygon_4.stopped,cor1,option1_t1.started,option1_t1.stopped,key_resp.keys,key_resp.rt,key_resp.started,key_resp.stopped,polygon_5.started,polygon_5.stopped,cor2,option1_t2.started,option1_t2.stopped,key_resp_2.keys,key_resp_2.rt,key_resp_2.started,key_resp_2.stopped,feedbackText.started,feedbackText.stopped,text.started,text.stopped,key_resp_3.keys,key_resp_3.started,key_resp_3.stopped,text_4.started,text_4.stopped,key_resp_7.keys,key_resp_7.rt,key_resp_7.started,key_resp_7.stopped,option1_2.started,option1_2.stopped,option2_2.started,option2_2.stopped,text_5.started,text_5.stopped,t0,t1,t2,t3,t4,t5,t6,t7,t8,t9,t10,t11,t12,t13,displayPicture_3.started,displayPicture_3.stopped,polygon_13.started,polygon_13.stopped,polygon_7.started,polygon_7.stopped,option1_t1_2.started,option1_t1_2.stopped,key_resp_6.keys,key_resp_6.rt,key_resp_6.started,key_resp_6.stopped,polygon_6.started,polygon_6.stopped,option1_t2_2.started,option1_t2_2.stopped,key_resp_5.keys,key_resp_5.rt,key_resp_5.started,key_resp_5.stopped,t14,participant,session,date,expName,psychopyVersion,frameRate,
,,,,,,,,,,,,,,,,,6.551650900000823,None,space,1.1763109999883454,6.551650900000823,None,,,,,,,,,,,,,,,,,,,,,,,,,,,,,,,,,,,,,,,,,,,,,,,,,,,,,,,,,,,,,,,,,,,,,,,,,,,,,,,,,,,,,,,,,,,,,,,,,,,,,,,,,001,2021_Mar_17_1125,AB_pic,2020.2.10,59.985087710613904,
AB,lag6,6,5,11,0.2,0.05,0.5,,0,0,0,0,,,,,,,,,,,chair.jpg,key07.jpg,accordion01.jpg,cactus.jpg,cashregister01.jpg,toad.jpg,triangle.jpg,exitsign.jpg,surfboard.jpg,jeep.jpg,whiteout.jpg,fishingrod.jpg,parkingmeter.jpg,horseshoe.jpg,slug.jpg,tiger02.jpg,zipper.jpg,7.78879260001122,10.538866300004884,7.78879260001122,10.538866300004884,10.27225000000908,None,1,0,13,10.772233299998334,None,10.772233299998334,None,.\resources\whiteout.jpg,14.271748400002252,None,1,14.271748400002252,None,left,1.2244592999923043,14.271748400002252,None,15.5216400000063,None,1,15.5216400000063,None,right,0.2223667999933241,15.5216400000063,None,15.788339600010659,None,16.78825694000261,None,None,16.78825694000261,None,,,,,,,,,,,,,,,,,,,,,,,,,,,,,,,,,,,,,,,,,,,,,,,,,001,2021_Mar_17_1125,AB_pic,2020.2.10,59.985087710613904,
,,,,,,,,,,,,,,,,,,,,,,,,,,,,,,,,,,,,,,,,,,,,,,,,,,,,,,,,,,,,,,,,,,,,,,,,,,,,,,,16.788242200011155,None,space,0.7701498000096763,16.788242200011155,None,,,,,,,,,,,,,,,,,,,,,,,,,,,,,,,,,,,,,,,,,,,001,2021_Mar_17_1125,AB_pic,2020.2.10,59.985087710613904,
AB,lag6,6,5,11,0.2,0.05,0.5,ramp,,,,,0,0,0,0,,,,,,,parkingmeter.jpg,locker.jpg,zipper.jpg,jellybean.jpg,whiteout.jpg,greatwhiteshark.jpg,pingpongtable.jpg,trophy01.jpg,surfboard.jpg,tiger02.jpg,chair.jpg,key07.jpg,toad.jpg,raccoon.jpg,jeep.jpg,masquerademask01.jpg,recyclingbin.jpg,,,,,,,0,0,13,,,,,.\resources\chair.jpg,,,False,,,,,,,,,True,,,,,,,,,25.104519740001706,None,None,25.104519740001706,None,,,,,,,17.63820690001012,20.38825319999887,17.63820690001012,20.38825319999887,20.121573500000522,None,0.2659272000018973,0.5157881000050111,0.7658858000067994,1.015629200002877,1.2656815999944229,1.5156722999963677,1.7656086000060895,2.0157581999956165,2.2657091000000946,2.5157001000043238,2.7656356999941636,3.0156176000018604,3.265605399996275,3.515667100000428,20.604866400011815,None,20.604866400011815,None,24.13796230001026,None,24.13796230001026,None,right,0.5979623999883188,24.13796230001026,None,24.77127150000888,None,24.77127150000888,None,right,0.3168234999902779,24.77127150000888,None,,,001,2021_Mar_17_1125,AB_pic,2020.2.10,59.985087710613904,
AB,lag4,4,4,8,0.193334,0.046666667,0.48,ramp,,,,,0,1,1,1,,,,,,,accordion01.jpg,slug.jpg,vulture.jpg,chair.jpg,key07.jpg,masquerademask01.jpg,fishskeleton.jpg,whiteout.jpg,trophy01.jpg,jellybean.jpg,pingpongtable.jpg,toad.jpg,zipper.jpg,recyclingbin.jpg,raccoon.jpg,fishingrod.jpg,greatwhiteshark.jpg,,,,,,,1,1,10,,,,,.\resources\whiteout.jpg,,,True,,,,,,,,,False,,,,,,,,,32.62074243999814,None,None,32.62074243999814,None,,,,,,,25.12133220001124,27.87151620000077,25.12133220001124,27.87151620000077,27.604779700006475,None,0.2473245000001043,0.4806471000047168,0.7306537999975262,0.9639666000002762,1.2139305000018794,1.4472558999987086,1.68057320000662,1.9305437000002712,2.1638299000042025,2.4137902000074973,2.6471435999992536,,,,28.10440650000237,None,28.10440650000237,None,30.770872200009762,None,30.770872200009762,None,left,1.5250654999981634,30.770872200009762,None,32.33741530000407,None,32.33741530000407,None,right,0.26263810000091325,32.33741530000407,None,,,001,2021_Mar_17_1125,AB_pic,2020.2.10,59.985087710613904,
AB,lag7,7,4,11,0.186668,0.043333334,0.45999999999999996,ramp,,,,,0,2,2,2,,,,,,,accordion01.jpg,cigar.jpg,chair.jpg,exitsign.jpg,slug.jpg,cactus.jpg,skippingrope.jpg,jellybean.jpg,surfboard.jpg,key07.jpg,toad.jpg,jeep.jpg,whiteout.jpg,greatwhiteshark.jpg,vulture.jpg,recyclingbin.jpg,masquerademask01.jpg,,,,,,,1,1,13,,,,,.\resources\toad.jpg,,,True,,,,,,,,,False,,,,,,,,,40.00358923999738,None,None,40.00358923999738,None,,,,,,,32.63740870000038,35.3872296000045,32.63740870000038,35.3872296000045,35.12058600000455,None,0.23150670000177342,0.46481970000604633,0.6981429000006756,0.93145160000131,1.1644125000020722,1.3810173000092618,1.6143096000014339,1.8476490000030026,2.081030000001192,2.3142862000095192,2.5310066000092775,2.764244100006181,2.9975864000007277,3.230867699996452,35.620567800011486,None,35.620567800011486,None,38.870474399998784,None,38.870474399998784,None,left,0.8574786000099266,38.870474399998784,None,39.77027680000174,None,39.77027680000174,None,left,0.21377590000338387,39.77027680000174,None,,,001,2021_Mar_17_1125,AB_pic,2020.2.10,59.985087710613904,
AB,lag5,5,5,10,0.180002,0.040000001,0.43999999999999995,ramp,,,,,0,3,3,3,,,,,,,fishskeleton.jpg,recyclingbin.jpg,cactus.jpg,tiger02.jpg,masquerademask01.jpg,surfboard.jpg,key07.jpg,trophy01.jpg,cigar.jpg,cashregister01.jpg,toad.jpg,zipper.jpg,triangle.jpg,chair.jpg,jeep.jpg,skippingrope.jpg,greatwhiteshark.jpg,,,,,,,0,0,12,,,,,.\resources\cashregister01.jpg,,,False,,,,,,,,,True,,,,,,,,,46.9198093399973,None,None,46.9198093399973,None,,,,,,,40.02026150000165,42.7705042000016,40.02026150000165,42.7705042000016,42.50343160000921,None,0.23152260000642855,0.44779980000748765,0.6644176000118023,0.881078600010369,1.11448350000137,1.3310982000111835,1.5477384000114398,1.7644148000108544,1.981054200005019,2.214328400004888,2.431001400007517,2.6476264000084484,2.864235800007009,,43.003384800002095,None,43.003384800002095,None,45.886548599999514,None,45.886548599999514,None,right,0.7373942000122042,45.886548599999514,None,46.66996410000138,None,46.66996410000138,None,right,0.22597429998859297,46.66996410000138,None,,,001,2021_Mar_17_1125,AB_pic,2020.2.10,59.985087710613904,
AB,lag2,2,3,5,0.173336,0.036666668,0.41999999999999993,ramp,,,,,0,4,4,4,,,,,,,greatwhiteshark.jpg,parkingmeter.jpg,whiteout.jpg,masquerademask01.jpg,boxingglove01.jpg,key07.jpg,triangle.jpg,cigar.jpg,fishingrod.jpg,exitsign.jpg,trophy01.jpg,toad.jpg,horseshoe.jpg,jellybean.jpg,pingpongtable.jpg,vulture.jpg,surfboard.jpg,,,,,,,0,0,7,,,,,.\resources\boxingglove01.jpg,,,False,,,,,,,,,True,,,,,,,,,52.48609713999758,None,None,52.48609713999758,None,,,,,,,46.93647090000741,49.686715300005744,46.93647090000741,49.686715300005744,49.41963499999838,None,0.21453749999636784,0.4312042000092333,0.6312628000014229,0.8473843999963719,1.0640645999956178,1.263988499995321,1.4806528000044636,1.6806504999985918,,,,,,,49.91959800000768,None,49.91959800000768,None,51.6196401000052,None,51.6196401000052,None,right,0.4923790999891935,51.6196401000052,None,52.152958400009084,None,52.152958400009084,None,right,0.311073300006683,52.152958400009084,None,,,001,2021_Mar_17_1125,AB_pic,2020.2.10,59.985087710613904,
AB,lag3,3,5,8,0.16666999999999998,0.033333335,0.3999999999999999,ramp,,,,,0,5,5,5,,,,,,,cactus.jpg,locker.jpg,recyclingbin.jpg,fishingrod.jpg,surfboard.jpg,slug.jpg,skippingrope.jpg,masquerademask01.jpg,jeep.jpg,vulture.jpg,exitsign.jpg,cigar.jpg,raccoon.jpg,jellybean.jpg,horseshoe.jpg,toad.jpg,chair.jpg,,,,,,,0,0,10,,,,,.\resources\masquerademask01.jpg,,,False,,,,,,,,,True,,,,,,,,,58.65237044000969,None,None,58.65237044000969,None,,,,,,,52.50276790000498,55.25305030000163,52.50276790000498,55.25305030000163,54.98637480000616,None,0.21374200000718702,0.4137555000052089,0.6137048000091454,0.8137191999994684,1.0136859000049299,1.2136591000016779,1.4136641000077361,1.6136326999985613,1.8136244000052102,2.013605700005428,2.213626299999305,,,,55.485897700011265,None,55.485897700011265,None,57.71920340000361,None,57.71920340000361,None,right,0.6327999999921303,57.71920340000361,None,58.38571120001143,None,58.38571120001143,None,right,0.24627409999084193,58.38571120001143,None,,,001,2021_Mar_17_1125,AB_pic,2020.2.10,59.985087710613904,
AB,lag1,1,4,5,0.16000399999999998,0.030000001999999998,0.3799999999999999,ramp,,,,,0,6,6,6,,,,,,,jeep.jpg,triangle.jpg,boxingglove01.jpg,fishingrod.jpg,slug.jpg,whiteout.jpg,accordion01.jpg,cigar.jpg,greatwhiteshark.jpg,jellybean.jpg,surfboard.jpg,locker.jpg,pingpongtable.jpg,parkingmeter.jpg,horseshoe.jpg,zipper.jpg,cashregister01.jpg,,,,,,,0,1,7,,,,,.\resources\slug.jpg,,,False,,,,,,,,,False,,,,,,,,,64.4020802399973,None,None,64.4020802399973,None,,,,,,,58.66904259999865,61.41887280000083,58.66904259999865,61.41887280000083,61.152190599997994,None,0.19765430000552442,0.38097620000189636,0.5810017000039807,0.7642392999987351,0.9642849999945611,1.1476435999938985,1.3309088999958476,1.5308943999989424,,,,,,,61.65217260000645,None,61.65217260000645,None,63.20221709999896,None,63.20221709999896,None,right,0.8936783999961335,63.20221709999896,None,64.1355184999993,None,64.1355184999993,None,left,0.24039220000850037,64.1355184999993,None,,,001,2021_Mar_17_1125,AB_pic,2020.2.10,59.985087710613904,
AB,lag6,6,5,11,0.15333799999999997,0.026666668999999997,0.3599999999999999,ramp,,,,,0,7,7,7,,,,,,,skippingrope.jpg,boxingglove01.jpg,tiger02.jpg,recyclingbin.jpg,masquerademask01.jpg,trophy01.jpg,key07.jpg,greatwhiteshark.jpg,parkingmeter.jpg,raccoon.jpg,slug.jpg,pingpongtable.jpg,locker.jpg,vulture.jpg,accordion01.jpg,toad.jpg,jeep.jpg,,,,,,,0,0,13,,,,,.\resources\slug.jpg,,,False,,,,,,,,,True,,,,,,,,,70.8016058400026,None,None,70.8016058400026,None,,,,,,,64.41879140000674,67.16850480000721,64.41879140000674,67.16850480000721,66.90195640000456,None,0.18148369999835268,0.3648027000017464,0.548127400004887,0.731429699997534,0.9147674999985611,1.0814145000040298,1.2646959999983665,1.448050200007856,1.631380699996953,1.8147007000079611,1.9813469000073383,2.164675599997281,2.3480022000003373,2.5313181999954395,67.40178320000996,None,67.40178320000996,None,69.95184460000019,None,69.95184460000019,None,right,0.5600439999980154,69.95184460000019,None,70.55175100000633,None,70.55175100000633,None,right,0.2241509000014048,70.55175100000633,None,,,001,2021_Mar_17_1125,AB_pic,2020.2.10,59.985087710613904,
AB,lag3,3,4,7,0.14667199999999997,0.023333335999999996,0.33999999999999986,ramp,,,,,0,8,8,8,,,,,,,surfboard.jpg,chair.jpg,slug.jpg,accordion01.jpg,key07.jpg,toad.jpg,whiteout.jpg,zipper.jpg,skippingrope.jpg,tiger02.jpg,pingpongtable.jpg,exitsign.jpg,cashregister01.jpg,triangle.jpg,greatwhiteshark.jpg,horseshoe.jpg,recyclingbin.jpg,,,,,,,0,0,9,,,,,.\resources\whiteout.jpg,,,False,,,,,,,,,True,,,,,,,,,76.43448784000793,None,None,76.43448784000793,None,,,,,,,70.81826990000263,73.56807239999762,70.81826990000263,73.56807239999762,73.30143490000046,None,0.18161980000149924,0.34835190000012517,0.5149929000035627,0.6816622999904212,0.8649456999992253,1.0316212000034284,1.198275200003991,1.3649452999961795,1.5315228999970714,1.7149426999967545,,,,,73.80139550000604,None,73.80139550000604,None,75.53460630000336,None,75.53460630000336,None,right,0.6492895999981556,75.53460630000336,None,76.21789080000599,None,76.21789080000599,None,right,0.1899868000036804,76.21789080000599,None,,,001,2021_Mar_17_1125,AB_pic,2020.2.10,59.985087710613904,
AB,lag4,4,4,8,0.14000599999999996,0.020000002999999995,0.31999999999999984,ramp,,,,,0,9,9,9,,,,,,,horseshoe.jpg,cashregister01.jpg,pingpongtable.jpg,toad.jpg,slug.jpg,cigar.jpg,key07.jpg,skippingrope.jpg,greatwhiteshark.jpg,surfboard.jpg,parkingmeter.jpg,masquerademask01.jpg,accordion01.jpg,zipper.jpg,recyclingbin.jpg,tiger02.jpg,fishingrod.jpg,,,,,,,0,0,10,,,,,.\resources\skippingrope.jpg,,,False,,,,,,,,,True,,,,,,,,,82.31745144000888,None,None,82.31745144000888,None,,,,,,,76.45118580000417,79.20147860000725,76.45118580000417,79.20147860000725,78.93479749999824,None,0.16391679999651387,0.33055669999157544,0.4805540999950608,0.6471880999888526,0.813813199987635,0.9638280999934068,1.1304926999873715,1.2804871999978786,1.4471894999878714,1.613789099996211,1.7637791999877663,,,,79.43433030000597,None,79.43433030000597,None,81.21755719999783,None,81.21755719999783,None,right,0.7343230999977095,81.21755719999783,None,81.98416610001004,None,81.98416610001004,None,right,0.31170260001090355,81.98416610001004,None,,,001,2021_Mar_17_1125,AB_pic,2020.2.10,59.985087710613904,
AB,lag5,5,4,9,0.13333999999999996,0.016666669999999995,0.2999999999999998,ramp,,,,,0,10,10,10,,,,,,,key07.jpg,cashregister01.jpg,fishskeleton.jpg,boxingglove01.jpg,triangle.jpg,skippingrope.jpg,horseshoe.jpg,toad.jpg,locker.jpg,parkingmeter.jpg,cigar.jpg,fishingrod.jpg,raccoon.jpg,zipper.jpg,chair.jpg,exitsign.jpg,greatwhiteshark.jpg,,,,,,,0,1,11,,,,,.\resources\locker.jpg,,,False,,,,,,,,,False,,,,,,,,,88.90041524000844,None,None,88.90041524000844,None,,,,,,,82.33416379999835,85.08439870001166,82.33416379999835,85.08439870001166,84.81774330000917,None,0.16494830000738148,0.31448729999829084,0.4644783000112511,0.614535300002899,0.7644445000041742,0.9144436000060523,1.0644846000068355,1.2144753000029596,1.3644429999985732,1.5144719000090845,1.664386700009345,1.814367700004368,,,85.31727270000556,None,85.31727270000556,None,87.15048229999957,None,87.15048229999957,None,right,1.377599499988719,87.15048229999957,None,88.56704239999817,None,88.56704239999817,None,left,0.3128445000038482,88.56704239999817,None,,,001,2021_Mar_17_1125,AB_pic,2020.2.10,59.985087710613904,
AB,lag2,2,3,5,0.12667399999999995,0.013333336999999994,0.2799999999999998,ramp,,,,,0,11,11,11,,,,,,,zipper.jpg,exitsign.jpg,jeep.jpg,cashregister01.jpg,jellybean.jpg,boxingglove01.jpg,skippingrope.jpg,pingpongtable.jpg,whiteout.jpg,raccoon.jpg,cigar.jpg,triangle.jpg,parkingmeter.jpg,greatwhiteshark.jpg,masquerademask01.jpg,surfboard.jpg,fishingrod.jpg,,,,,,,1,1,7,,,,,.\resources\jellybean.jpg,,,True,,,,,,,,,False,,,,,,,,,94.76668254000106,None,None,94.76668254000106,None,,,,,,,88.91714309999952,91.66725430000224,88.91714309999952,91.66725430000224,91.40020370000275,None,0.14770689999568276,0.2977214999991702,0.43102360000193585,0.5643201000057161,0.7138946000050055,0.8472182999976212,0.9971879999939119,1.1305465000041295,,,,,,,91.90015800000401,None,91.90015800000401,None,93.05021660000784,None,93.05021660000784,None,right,1.2376487000001362,93.05021660000784,None,94.33334330000798,None,94.33334330000798,None,left,0.40254060000006575,94.33334330000798,None,,,001,2021_Mar_17_1125,AB_pic,2020.2.10,59.985087710613904,
AB,lag1,1,4,5,0.12000799999999995,0.010000003999999993,0.2599999999999998,ramp,,,,,0,12,12,12,,,,,,,horseshoe.jpg,fishskeleton.jpg,whiteout.jpg,exitsign.jpg,triangle.jpg,greatwhiteshark.jpg,cashregister01.jpg,surfboard.jpg,raccoon.jpg,key07.jpg,masquerademask01.jpg,boxingglove01.jpg,cactus.jpg,jellybean.jpg,pingpongtable.jpg,jeep.jpg,recyclingbin.jpg,,,,,,,1,0,7,,,,,.\resources\triangle.jpg,,,True,,,,,,,,,True,,,,,,,,,100.13307354000426,None,None,100.13307354000426,None,,,,,,,94.78332010000304,97.53352190001169,94.78332010000304,97.53352190001169,97.26689130000887,None,0.1476085000031162,0.2809196000016527,0.3975836000026902,0.5309133999980986,0.6642206999968039,0.7977132000087295,0.9304667999967933,1.047117000009166,,,,,,,97.76643100001093,None,97.76643100001093,None,98.83303180000803,None,98.83303180000803,None,left,1.0068481999915093,98.83303180000803,None,99.88313080000808,None,99.88313080000808,None,right,0.22070210000674706,99.88313080000808,None,,,001,2021_Mar_17_1125,AB_pic,2020.2.10,59.985087710613904,
AB,lag7,7,5,12,0.11334199999999994,0.006666670999999993,0.2399999999999998,ramp,,,,,0,13,13,13,,,,,,,toad.jpg,chair.jpg,slug.jpg,boxingglove01.jpg,tiger02.jpg,greatwhiteshark.jpg,horseshoe.jpg,jeep.jpg,cactus.jpg,vulture.jpg,fishingrod.jpg,skippingrope.jpg,cigar.jpg,cashregister01.jpg,whiteout.jpg,trophy01.jpg,raccoon.jpg,,,,,,,0,0,14,,,,,.\resources\skippingrope.jpg,,,False,,,,,,,,,True,,,,,,,,,105.8492994400076,None,None,105.8492994400076,None,,,,,,,100.1496632000053,102.89984090000507,100.1496632000053,102.89984090000507,102.63314890000038,None,0.13151310000102967,0.26485339998907875,0.38150029999087565,0.4977348999964306,0.614363599990611,0.7310292999900412,0.8643394999962766,0.98106099999859,1.0977053999959026,1.2143910999875516,1.3310147000011057,1.464330599992536,1.5809998999902746,1.6977045999956317,103.1327442000038,None,103.1327442000038,None,104.965964300005,None,104.965964300005,None,right,0.5859810999972979,104.965964300005,None,105.59925590000057,None,105.59925590000057,None,right,0.2246300999977393,105.59925590000057,None,1.814376700000139,,001,2021_Mar_17_1125,AB_pic,2020.2.10,59.985087710613904,
AB,lag1,1,3,4,0.10667599999999994,0.003333337999999993,0.2199999999999998,ramp,,,,,0,14,14,14,,,,,,,vulture.jpg,chair.jpg,cigar.jpg,tiger02.jpg,whiteout.jpg,jeep.jpg,locker.jpg,recyclingbin.jpg,toad.jpg,key07.jpg,raccoon.jpg,greatwhiteshark.jpg,masquerademask01.jpg,triangle.jpg,skippingrope.jpg,horseshoe.jpg,cashregister01.jpg,,,,,,,0,1,6,,,,,.\resources\tiger02.jpg,,,False,,,,,,,,,False,,,,,,,,,111.16550114000711,None,None,111.16550114000711,None,,,,,,,105.86593040000298,108.61612940000487,105.86593040000298,108.61612940000487,108.34949230001075,None,0.13108759999158792,0.24770949999219738,0.3477241999935359,0.46435890000429936,0.5643865000020014,0.681072099992889,0.7972864000039408,,,,,,,,108.84903480000503,None,108.84903480000503,None,109.66565619999892,None,109.66565619999892,None,left,1.2142152999876998,109.66565619999892,None,110.9156093000056,None,110.9156093000056,None,left,0.22029270000348333,110.9156093000056,None,,,001,2021_Mar_17_1125,AB_pic,2020.2.10,59.985087710613904,
AB,lag6,6,5,11,0.1,0.0,0.2,main,,,,,0,15,15,15,,,,,,,skippingrope.jpg,surfboard.jpg,parkingmeter.jpg,tiger02.jpg,trophy01.jpg,horseshoe.jpg,accordion01.jpg,whiteout.jpg,masquerademask01.jpg,greatwhiteshark.jpg,jellybean.jpg,boxingglove01.jpg,slug.jpg,cashregister01.jpg,jeep.jpg,zipper.jpg,fishskeleton.jpg,,,,,,,0,0,13,,,,,.\resources\jellybean.jpg,,,False,,,,,,,,,True,,,,,,,,,117.06515414000751,None,None,117.06515414000751,None,,,,,,,111.18231640000886,113.93244240000786,111.18231640000886,113.93244240000786,113.66578960001061,None,0.1316196999978274,0.2315870000020368,0.3315853999956744,0.43115770000440534,0.531157000004896,0.6311489999934565,0.7311394999996992,0.8311501999996835,0.9311879000015324,1.0311302000045544,1.131154399990919,1.2311413999996148,1.3311194999987492,1.4311546999961138,114.1653556000092,None,114.1653556000092,None,115.61527609999757,None,115.61527609999757,None,right,0.9365678000031039,115.61527609999757,None,116.58182130000205,None,116.58182130000205,None,left,0.45802600000752136,116.58182130000205,None,,,001,2021_Mar_17_1125,AB_pic,2020.2.10,59.985087710613904,
AB,lag1,1,5,6,0.1,0.0,0.2,main,,,,,0,16,16,16,,,,,,,horseshoe.jpg,cashregister01.jpg,boxingglove01.jpg,zipper.jpg,pingpongtable.jpg,key07.jpg,accordion01.jpg,locker.jpg,toad.jpg,recyclingbin.jpg,cigar.jpg,exitsign.jpg,tiger02.jpg,fishingrod.jpg,trophy01.jpg,triangle.jpg,chair.jpg,,,,,,,0,1,8,,,,,.\resources\key07.jpg,,,False,,,,,,,,,False,,,,,,,,,122.4981801400063,None,None,122.4981801400063,None,,,,,,,117.08182360000501,119.83210980000149,117.08182360000501,119.83210980000149,119.56547010000213,None,0.13104169999132864,0.23060029999760445,0.3305853999918327,0.430958599987207,0.5305761999916285,0.6305798999965191,0.7304751999909058,0.830498199997237,0.9304658999899402,,,,,,120.0650042000052,None,120.0650042000052,None,121.01504900000873,None,121.01504900000873,None,right,1.1287518000026466,121.01504900000873,None,122.18166790000396,None,122.18166790000396,None,left,0.2901653000008082,122.18166790000396,None,,,001,2021_Mar_17_1125,AB_pic,2020.2.10,59.985087710613904,
AB,lag5,5,3,8,0.1,0.0,0.2,main,,,,,0,17,17,17,,,,,,,masquerademask01.jpg,jellybean.jpg,horseshoe.jpg,fishingrod.jpg,cactus.jpg,slug.jpg,tiger02.jpg,pingpongtable.jpg,cashregister01.jpg,trophy01.jpg,cigar.jpg,skippingrope.jpg,locker.jpg,jeep.jpg,boxingglove01.jpg,toad.jpg,chair.jpg,,,,,,,0,0,10,,,,,.\resources\pingpongtable.jpg,,,False,,,,,,,,,True,,,,,,,,,127.41448084000876,None,None,127.41448084000876,None,,,,,,,122.5148227000027,125.26508670000476,122.5148227000027,125.26508670000476,124.99848080000083,None,0.1309276999963913,0.23091179999755695,0.3309390000067651,0.43096820000209846,0.5309138000011444,0.6310550000052899,0.7309240000031423,0.8309532999992371,0.9308983000082662,1.030873800002155,1.1309162999968976,,,,125.49794400000246,None,125.49794400000246,None,126.6480436999991,None,126.6480436999991,None,right,0.48775599998771213,126.6480436999991,None,127.18132210000476,None,127.18132210000476,None,right,0.21051190000434872,127.18132210000476,None,,,001,2021_Mar_17_1125,AB_pic,2020.2.10,59.985087710613904,
AB,lag3,3,4,7,0.1,0.0,0.2,main,,,,,0,18,18,18,,,,,,,surfboard.jpg,tiger02.jpg,locker.jpg,pingpongtable.jpg,horseshoe.jpg,accordion01.jpg,zipper.jpg,vulture.jpg,skippingrope.jpg,whiteout.jpg,fishskeleton.jpg,recyclingbin.jpg,exitsign.jpg,jeep.jpg,slug.jpg,trophy01.jpg,masquerademask01.jpg,,,,,,,0,0,9,,,,,.\resources\zipper.jpg,,,False,,,,,,,,,True,,,,,,,,,132.48082584000804,None,None,132.48082584000804,None,,,,,,,127.43116540000483,130.18140420000418,127.43116540000483,130.18140420000418,129.91476980000152,None,0.13149200000043493,0.2308772999967914,0.3308947000041371,0.4308865000057267,0.5308845999970799,0.6308811000053538,0.7308983999973862,0.830884299997706,0.9309321000037016,1.0308929000020726,,,,,130.41430550000223,None,130.41430550000223,None,131.46425160000217,None,131.46425160000217,None,right,0.7595390000060434,131.46425160000217,None,132.26415290001023,None,132.26415290001023,None,right,0.19969390000915155,132.26415290001023,None,,,001,2021_Mar_17_1125,AB_pic,2020.2.10,59.985087710613904,
AB,lag2,2,5,7,0.1,0.0,0.2,main,,,,,0,19,19,19,,,,,,,exitsign.jpg,accordion01.jpg,masquerademask01.jpg,recyclingbin.jpg,locker.jpg,parkingmeter.jpg,cactus.jpg,trophy01.jpg,jeep.jpg,jellybean.jpg,triangle.jpg,fishskeleton.jpg,fishingrod.jpg,vulture.jpg,cashregister01.jpg,greatwhiteshark.jpg,horseshoe.jpg,,,,,,,0,0,9,,,,,.\resources\cactus.jpg,,,False,,,,,,,,,True,,,,,,,,,138.63043884000945,None,None,138.63043884000945,None,,,,,,,132.49767930000962,135.24776920001023,132.49767930000962,135.24776920001023,134.98118770000292,None,0.13080290000652894,0.23078460000397172,0.3307805000076769,0.4307889000046998,0.5307464000070468,0.6307629000075394,0.7307349000038812,0.8307541999965906,0.9307243999937782,1.0307125999970594,,,,,135.48063050000928,None,135.48063050000928,None,136.5305381000071,None,136.5305381000071,None,right,1.1092900000076042,136.5305381000071,None,137.68048520000593,None,137.68048520000593,None,right,0.9274888999934774,137.68048520000593,None,,,001,2021_Mar_17_1125,AB_pic,2020.2.10,59.985087710613904,
AB,lag4,4,3,7,0.1,0.0,0.2,main,,,,,0,20,20,20,,,,,,,jeep.jpg,accordion01.jpg,recyclingbin.jpg,whiteout.jpg,masquerademask01.jpg,parkingmeter.jpg,greatwhiteshark.jpg,key07.jpg,slug.jpg,cashregister01.jpg,chair.jpg,fishskeleton.jpg,vulture.jpg,jellybean.jpg,triangle.jpg,tiger02.jpg,cigar.jpg,,,,,,,0,1,9,,,,,.\resources\greatwhiteshark.jpg,,,False,,,,,,,,,False,,,,,,,,,144.6633366399983,None,None,144.6633366399983,None,,,,,,,138.6470937999984,141.3973313000024,138.6470937999984,141.3973313000024,141.13069550000364,None,0.13130670000100508,0.23127580000436865,0.331285400010529,0.4313173000118695,0.5314254999975674,0.6312826000066707,0.7312691999977687,0.8312788000039291,0.9312472000019625,1.0312686000106623,,,,,141.63023270000122,None,141.63023270000122,None,142.68017500000133,None,142.68017500000133,None,left,1.6476211999979569,142.68017500000133,None,144.34668760000204,None,144.34668760000204,None,left,0.3011728999990737,144.34668760000204,None,,,001,2021_Mar_17_1125,AB_pic,2020.2.10,59.985087710613904,
AB,lag7,7,5,12,0.1,0.0,0.2,main,,,,,0,21,21,21,,,,,,,trophy01.jpg,fishingrod.jpg,vulture.jpg,masquerademask01.jpg,chair.jpg,recyclingbin.jpg,cactus.jpg,boxingglove01.jpg,horseshoe.jpg,parkingmeter.jpg,locker.jpg,tiger02.jpg,cigar.jpg,accordion01.jpg,surfboard.jpg,cashregister01.jpg,zipper.jpg,,,,,,,1,0,14,,,,,.\resources\tiger02.jpg,,,True,,,,,,,,,True,,,,,,,,,150.69627324000612,None,None,150.69627324000612,None,,,,,,,144.6800399000058,147.43021570000565,144.6800399000058,147.43021570000565,147.16358430001128,None,0.1317226999963168,0.23171910000382923,0.3317344000097364,0.43170899999677204,0.5316992000007303,0.6316767999960575,0.7316701000090688,0.8316538000071887,0.9312157000094885,1.0312439999979688,1.1312034000002313,1.2312214999983553,1.3312164000089979,1.431210499998997,147.66313490000903,None,147.66313490000903,None,149.21304630000668,None,149.21304630000668,None,left,1.146887400012929,149.21304630000668,None,150.3962850000098,None,150.3962850000098,None,right,0.27555809999466874,150.3962850000098,None,1.5313392999960342,,001,2021_Mar_17_1125,AB_pic,2020.2.10,59.985087710613904,
AB,lag6,6,5,11,0.1,0.0,0.2,main,,,,,0,22,22,22,,,,,,,whiteout.jpg,trophy01.jpg,tiger02.jpg,skippingrope.jpg,greatwhiteshark.jpg,accordion01.jpg,raccoon.jpg,zipper.jpg,masquerademask01.jpg,slug.jpg,vulture.jpg,boxingglove01.jpg,locker.jpg,recyclingbin.jpg,cactus.jpg,pingpongtable.jpg,key07.jpg,,,,,,,0,0,13,,,,,.\resources\vulture.jpg,,,False,,,,,,,,,True,,,,,,,,,157.3291618400035,None,None,157.3291618400035,None,,,,,,,150.71291850000853,153.463158700004,150.71291850000853,153.463158700004,153.19652700000734,None,0.13177519998862408,0.23174869999638759,0.33138839999446645,0.43178669999178965,0.5317394000012428,0.6317606999946292,0.7317328999924939,0.8317162999883294,0.9313084999885177,1.0312777999934042,1.1312725999887334,1.2312715000007302,1.3313297999993665,1.43141609999293,153.69606040000508,None,153.69606040000508,None,155.1459920000052,None,155.1459920000052,None,right,1.1579572999908123,155.1459920000052,None,156.34602460000315,None,156.34602460000315,None,right,0.9579460999957519,156.34602460000315,None,,,001,2021_Mar_17_1125,AB_pic,2020.2.10,59.985087710613904,
AB,lag7,7,5,12,0.1,0.0,0.2,main,,,,,0,23,23,23,,,,,,,jellybean.jpg,toad.jpg,key07.jpg,locker.jpg,triangle.jpg,slug.jpg,whiteout.jpg,recyclingbin.jpg,horseshoe.jpg,jeep.jpg,surfboard.jpg,greatwhiteshark.jpg,skippingrope.jpg,chair.jpg,accordion01.jpg,boxingglove01.jpg,cactus.jpg,,,,,,,0,0,14,,,,,.\resources\greatwhiteshark.jpg,,,False,,,,,,,,,True,,,,,,,,,163.87875173999782,None,None,163.87875173999782,None,,,,,,,157.34583270001167,160.09604270001,157.34583270001167,160.09604270001,159.82941220000794,None,0.1308454999962123,0.23084669999661855,0.3304599999974016,0.4304313999891747,0.5304335999971954,0.6304187999921851,0.7304162999935215,0.8303992999863112,0.9304193999996642,1.0303808999888133,1.13037909999548,1.2304133999859914,1.3303982999932487,1.430364499989082,160.32895680000365,None,160.32895680000365,None,161.87900050000462,None,161.87900050000462,None,left,1.6728100000036648,161.87900050000462,None,163.5954660999996,None,163.5954660999996,None,right,0.25236430000222754,163.5954660999996,None,1.5303899999998976,,001,2021_Mar_17_1125,AB_pic,2020.2.10,59.985087710613904,
AB,lag5,5,3,8,0.1,0.0,0.2,main,,,,,0,24,24,24,,,,,,,chair.jpg,zipper.jpg,fishskeleton.jpg,raccoon.jpg,exitsign.jpg,tiger02.jpg,fishingrod.jpg,greatwhiteshark.jpg,toad.jpg,accordion01.jpg,vulture.jpg,whiteout.jpg,slug.jpg,pingpongtable.jpg,skippingrope.jpg,triangle.jpg,key07.jpg,,,,,,,1,0,10,,,,,.\resources\greatwhiteshark.jpg,,,True,,,,,,,,,True,,,,,,,,,169.54507794000529,None,None,169.54507794000529,None,,,,,,,163.89546300000802,166.64568680000957,163.89546300000802,166.64568680000957,166.37858679999772,None,0.13067459999001585,0.23117889999412,0.3311098999984097,0.43109429998730775,0.5306819999968866,0.6307273999991594,0.730653299993719,0.8306703999987803,0.9306448999996064,1.0306448999908753,1.1306420999899274,,,,166.87855960000888,None,166.87855960000888,None,168.02848960000847,None,168.02848960000847,None,left,1.2353282999974908,168.02848960000847,None,169.31185620000178,None,169.31185620000178,None,left,0.2159605999913765,169.31185620000178,None,,,001,2021_Mar_17_1125,AB_pic,2020.2.10,59.985087710613904,
AB,lag3,3,3,6,0.1,0.0,0.2,main,,,,,0,25,25,25,,,,,,,surfboard.jpg,greatwhiteshark.jpg,chair.jpg,pingpongtable.jpg,masquerademask01.jpg,recyclingbin.jpg,fishskeleton.jpg,vulture.jpg,trophy01.jpg,slug.jpg,locker.jpg,skippingrope.jpg,parkingmeter.jpg,accordion01.jpg,toad.jpg,raccoon.jpg,whiteout.jpg,,,,,,,0,0,8,,,,,.\resources\recyclingbin.jpg,,,False,,,,,,,,,True,,,,,,,,,174.7447481400086,None,None,174.7447481400086,None,,,,,,,169.56171560000803,172.31158380000852,169.56171560000803,172.31158380000852,172.0449309000105,None,0.1316610999929253,0.23161259999324102,0.33161459999973886,0.4315939999942202,0.5315930999931879,0.6315326999902027,0.7317023999930825,0.8314805999980308,0.9315255999972578,,,,,,172.54485250001017,None,172.54485250001017,None,173.49494520000007,None,173.49494520000007,None,right,0.8730547000013757,173.49494520000007,None,174.411563200003,None,174.411563200003,None,left,0.31648729999142233,174.411563200003,None,,,001,2021_Mar_17_1125,AB_pic,2020.2.10,59.985087710613904,
AB,lag2,2,3,5,0.1,0.0,0.2,main,,,,,0,26,26,26,,,,,,,accordion01.jpg,jeep.jpg,slug.jpg,boxingglove01.jpg,masquerademask01.jpg,zipper.jpg,cactus.jpg,raccoon.jpg,tiger02.jpg,cashregister01.jpg,whiteout.jpg,key07.jpg,trophy01.jpg,surfboard.jpg,parkingmeter.jpg,fishingrod.jpg,vulture.jpg,,,,,,,0,0,7,,,,,.\resources\masquerademask01.jpg,,,False,,,,,,,,,True,,,,,,,,,180.0110613400102,None,None,180.0110613400102,None,,,,,,,174.76138570001058,177.51119499999913,174.76138570001058,177.51119499999913,177.24456890000147,None,0.1304014999914216,0.2303918999969028,0.33037969999713823,0.4303836999897612,0.5303736999921966,0.6304050999897299,0.7303561000007903,0.8303519999899436,,,,,,,177.76119190000463,None,177.76119190000463,None,178.59444990000338,None,178.59444990000338,None,right,1.0855791000067256,178.59444990000338,None,179.72772809999879,None,179.72772809999879,None,left,0.26419719999830704,179.72772809999879,None,,,001,2021_Mar_17_1125,AB_pic,2020.2.10,59.985087710613904,
AB,lag1,1,5,6,0.1,0.0,0.2,main,,,,,0,27,27,27,,,,,,,skippingrope.jpg,exitsign.jpg,fishskeleton.jpg,surfboard.jpg,cactus.jpg,fishingrod.jpg,whiteout.jpg,cigar.jpg,toad.jpg,parkingmeter.jpg,greatwhiteshark.jpg,boxingglove01.jpg,chair.jpg,vulture.jpg,masquerademask01.jpg,recyclingbin.jpg,tiger02.jpg,,,,,,,0,0,8,,,,,.\resources\fishingrod.jpg,,,False,,,,,,,,,True,,,,,,,,,185.52732483999716,None,None,185.52732483999716,None,,,,,,,180.0278563000029,182.7775249999977,180.0278563000029,182.7775249999977,182.51087270000426,None,0.13142590000643395,0.23137969999515917,0.3313242000003811,0.43132109999714885,0.5313954000012018,0.6312967999983812,0.7313487000064924,0.8313512000022456,0.9312897000054363,,,,,,183.01086380000925,None,183.01086380000925,None,183.96093200000178,None,183.96093200000178,None,left,1.1109612000000197,183.96093200000178,None,185.0940072000085,None,185.0940072000085,None,left,0.40200020000338554,185.0940072000085,None,,,001,2021_Mar_17_1125,AB_pic,2020.2.10,59.985087710613904,
AB,lag4,4,5,9,0.1,0.0,0.2,main,,,,,0,28,28,28,,,,,,,exitsign.jpg,key07.jpg,greatwhiteshark.jpg,vulture.jpg,skippingrope.jpg,raccoon.jpg,cigar.jpg,whiteout.jpg,trophy01.jpg,zipper.jpg,cactus.jpg,boxingglove01.jpg,fishskeleton.jpg,cashregister01.jpg,locker.jpg,jeep.jpg,toad.jpg,,,,,,,1,1,11,,,,,.\resources\trophy01.jpg,,,True,,,,,,,,,False,,,,,,,,,192.09354704000725,None,None,192.09354704000725,None,,,,,,,185.54397150001023,188.29423520001,185.54397150001023,188.29423520001,188.02757479999855,None,0.13051960000302643,0.23050649999640882,0.33050310000544414,0.4308885000064038,0.5304814999981318,0.6309039000043413,0.7304715000063879,0.8308894999936456,0.930462999996962,1.0308787999965716,1.1304763999942224,1.2304512999980943,,,188.52710960000695,None,188.52710960000695,None,189.77718060000916,None,189.77718060000916,None,left,1.9346895999915432,189.77718060000916,None,191.7603761000064,None,191.7603761000064,None,left,0.3114491000014823,191.7603761000064,None,,,001,2021_Mar_17_1125,AB_pic,2020.2.10,59.985087710613904,
AB,lag3,3,4,7,0.1,0.0,0.2,main,,,,,0,29,29,29,,,,,,,cashregister01.jpg,key07.jpg,fishskeleton.jpg,greatwhiteshark.jpg,cactus.jpg,trophy01.jpg,masquerademask01.jpg,skippingrope.jpg,slug.jpg,recyclingbin.jpg,boxingglove01.jpg,horseshoe.jpg,cigar.jpg,whiteout.jpg,surfboard.jpg,jeep.jpg,vulture.jpg,,,,,,,0,1,9,,,,,.\resources\masquerademask01.jpg,,,False,,,,,,,,,False,,,,,,,,,197.4265314400036,None,None,197.4265314400036,None,,,,,,,192.1102269999974,194.86044160000165,192.1102269999974,194.86044160000165,194.59382950000872,None,0.13132499999483116,0.23138479999033734,0.3313235999958124,0.43131449999054894,0.5308847999986028,0.6308305999991717,0.7308408999961102,0.830873300001258,0.9308641999959946,1.0310016000003088,,,,,195.09333470001002,None,195.09333470001002,None,196.14345670001057,None,196.14345670001057,None,right,0.8325048999977298,196.14345670001057,None,197.00989200000186,None,197.00989200000186,None,left,0.39000810000288766,197.00989200000186,None,,,001,2021_Mar_17_1125,AB_pic,2020.2.10,59.985087710613904,
AB,lag1,1,4,5,0.1,0.0,0.2,main,,,,,0,30,30,30,,,,,,,whiteout.jpg,cigar.jpg,chair.jpg,cashregister01.jpg,tiger02.jpg,fishingrod.jpg,exitsign.jpg,parkingmeter.jpg,jeep.jpg,slug.jpg,toad.jpg,key07.jpg,recyclingbin.jpg,jellybean.jpg,locker.jpg,trophy01.jpg,accordion01.jpg,,,,,,,0,0,7,,,,,.\resources\tiger02.jpg,,,False,,,,,,,,,True,,,,,,,,,203.1761568400034,None,None,203.1761568400034,None,,,,,,,197.44320460000017,200.19343220000155,197.44320460000017,200.19343220000155,199.9267574000114,None,0.1317507000057958,0.2317040000052657,0.33178019999468233,0.4317857999994885,0.531683699999121,0.6317311000020709,0.731671900008223,0.8317053000064334,,,,,,,200.4263520000095,None,200.4263520000095,None,201.27673610000056,None,201.27673610000056,None,right,1.5311642000015127,201.27673610000056,None,202.84298250000575,None,202.84298250000575,None,right,0.308904799996526,202.84298250000575,None,,,001,2021_Mar_17_1125,AB_pic,2020.2.10,59.985087710613904,
AB,lag4,4,5,9,0.1,0.0,0.2,main,,,,,0,31,31,31,,,,,,,vulture.jpg,tiger02.jpg,slug.jpg,chair.jpg,raccoon.jpg,trophy01.jpg,fishingrod.jpg,fishskeleton.jpg,cigar.jpg,jellybean.jpg,surfboard.jpg,horseshoe.jpg,accordion01.jpg,pingpongtable.jpg,jeep.jpg,recyclingbin.jpg,toad.jpg,,,,,,,1,0,11,,,,,.\resources\cigar.jpg,,,True,,,,,,,,,True,,,,,,,,,208.7757731399979,None,None,208.7757731399979,None,,,,,,,203.1928193000058,205.94305830000667,203.1928193000058,205.94305830000667,205.67640490000485,None,0.1311118999874452,0.2310975000000326,0.33109999999578577,0.4306415999890305,0.530590199996368,0.6306565999984741,0.73065859999042,0.8306566999963252,0.9305870999960462,1.0306102999893483,1.1306187999871327,1.230627299999469,,,206.17593920000945,None,206.17593920000945,None,207.4258744000108,None,207.4258744000108,None,left,1.022053299995605,207.4258744000108,None,208.49244590000308,None,208.49244590000308,None,right,0.26747159998922143,208.49244590000308,None,,,001,2021_Mar_17_1125,AB_pic,2020.2.10,59.985087710613904,
AB,lag6,6,3,9,0.1,0.0,0.2,main,,,,,0,32,32,32,,,,,,,recyclingbin.jpg,zipper.jpg,greatwhiteshark.jpg,jellybean.jpg,exitsign.jpg,masquerademask01.jpg,skippingrope.jpg,toad.jpg,vulture.jpg,chair.jpg,tiger02.jpg,locker.jpg,parkingmeter.jpg,key07.jpg,cigar.jpg,fishskeleton.jpg,jeep.jpg,,,,,,,0,0,11,,,,,.\resources\vulture.jpg,,,False,,,,,,,,,True,,,,,,,,,214.04210844000772,None,None,214.04210844000772,None,,,,,,,208.79246480000438,211.54233470000327,208.79246480000438,211.54233470000327,211.27568299999984,None,0.13134310000168625,0.23132960000657476,0.33132179999665823,0.4313150000089081,0.5313145999971312,0.6312967999983812,0.7313114999997197,0.8312458000000333,0.9312561999977333,1.0312548000074457,1.1312359000003198,1.2312358000053791,,,211.77563689999806,None,211.77563689999806,None,213.0255765000038,None,213.0255765000038,None,right,0.7022422000009101,213.0255765000038,None,213.7756534000073,None,213.7756534000073,None,right,0.24814129999140278,213.7756534000073,None,,,001,2021_Mar_17_1125,AB_pic,2020.2.10,59.985087710613904,
AB,lag2,2,3,5,0.1,0.0,0.2,main,,,,,0,33,33,33,,,,,,,exitsign.jpg,vulture.jpg,chair.jpg,recyclingbin.jpg,whiteout.jpg,cashregister01.jpg,cigar.jpg,slug.jpg,fishingrod.jpg,parkingmeter.jpg,jeep.jpg,pingpongtable.jpg,greatwhiteshark.jpg,triangle.jpg,locker.jpg,key07.jpg,jellybean.jpg,,,,,,,0,0,7,,,,,.\resources\whiteout.jpg,,,False,,,,,,,,,True,,,,,,,,,219.45845214000292,None,None,219.45845214000292,None,,,,,,,214.0589747000049,216.80863030000182,214.0589747000049,216.80863030000182,216.54196909999882,None,0.13170950001222081,0.2317079000058584,0.33170770001015626,0.4316918000113219,0.5316810000076657,0.6316796000028262,0.7316750000027241,0.8316764000046533,,,,,,,217.04194650000136,None,217.04194650000136,None,217.89189030000125,None,217.89189030000125,None,left,1.2519207000004826,217.89189030000125,None,219.1918236000056,None,219.1918236000056,None,right,0.23998379999829922,219.1918236000056,None,,,001,2021_Mar_17_1125,AB_pic,2020.2.10,59.985087710613904,
AB,lag5,5,4,9,0.1,0.0,0.2,main,,,,,0,34,34,34,,,,,,,slug.jpg,surfboard.jpg,jellybean.jpg,skippingrope.jpg,greatwhiteshark.jpg,pingpongtable.jpg,fishingrod.jpg,cactus.jpg,toad.jpg,horseshoe.jpg,parkingmeter.jpg,tiger02.jpg,masquerademask01.jpg,key07.jpg,jeep.jpg,vulture.jpg,boxingglove01.jpg,,,,,,,1,0,11,,,,,.\resources\toad.jpg,,,True,,,,,,,,,True,,,,,,,,,225.1913796400113,None,None,225.1913796400113,None,,,,,,,219.47514950000914,222.22534060000908,219.47514950000914,222.22534060000908,221.95869780000066,None,0.13126090000150725,0.2312339000054635,0.33124660000612494,0.43122690000745934,0.5312169999961043,0.6312019000033615,0.7311957000056282,0.8311927000031574,0.9311820000002626,1.0311802000069292,1.1311764999991283,1.2311631000047782,,,222.458226200004,None,222.458226200004,None,223.70814760000212,None,223.70814760000212,None,left,1.1556769000017084,223.70814760000212,None,224.90810910001164,None,224.90810910001164,None,right,0.26767470000777394,224.90810910001164,None,,,001,2021_Mar_17_1125,AB_pic,2020.2.10,59.985087710613904,
AB,lag7,7,5,12,0.1,0.0,0.2,main,,,,,0,35,35,35,,,,,,,trophy01.jpg,slug.jpg,accordion01.jpg,key07.jpg,surfboard.jpg,recyclingbin.jpg,toad.jpg,pingpongtable.jpg,greatwhiteshark.jpg,cashregister01.jpg,zipper.jpg,triangle.jpg,skippingrope.jpg,cactus.jpg,boxingglove01.jpg,vulture.jpg,tiger02.jpg,,,,,,,0,0,14,,,,,.\resources\triangle.jpg,,,False,,,,,,,,,True,,,,,,,,,230.62438084001042,None,None,230.62438084001042,None,,,,,,,225.20805450000626,227.95828450001136,225.20805450000626,227.95828450001136,227.69164099999762,None,0.13149550001253374,0.23126950000005309,0.331475800005137,0.4309047999995528,0.5308150000055321,0.6308578000025591,0.730841299999156,0.8308217000012519,0.9309278000000631,1.030787000010605,1.1308028000057675,1.230779600009555,1.3307676000113133,1.4307933000090998,228.19118350000645,None,228.19118350000645,None,229.74111470000935,None,229.74111470000935,None,right,0.602695900000981,229.74111470000935,None,230.39105740000377,None,230.39105740000377,None,right,0.20879650001006667,230.39105740000377,None,1.5308230000082403,,001,2021_Mar_17_1125,AB_pic,2020.2.10,59.985087710613904,
AB,lag5,5,5,10,0.1,0.0,0.2,main,,,,,0,36,36,36,,,,,,,cashregister01.jpg,whiteout.jpg,parkingmeter.jpg,boxingglove01.jpg,horseshoe.jpg,cactus.jpg,raccoon.jpg,trophy01.jpg,vulture.jpg,tiger02.jpg,chair.jpg,surfboard.jpg,triangle.jpg,accordion01.jpg,cigar.jpg,exitsign.jpg,skippingrope.jpg,,,,,,,0,0,12,,,,,.\resources\tiger02.jpg,,,False,,,,,,,,,True,,,,,,,,,235.80735044000176,None,None,235.80735044000176,None,,,,,,,230.641054000007,233.39126879999822,230.641054000007,233.39126879999822,233.12462610000512,None,0.1311349000025075,0.2311269999918295,0.33109809999587014,0.4311054999998305,0.5311533999920357,0.6310972999926889,0.7310863000020618,0.8310922999953618,0.9311231000028783,1.0311336000013398,1.1311031999939587,1.2311039999913191,1.331092799999169,,233.62414210000134,None,233.62414210000134,None,234.97425379999913,None,234.97425379999913,None,right,0.48951080000551883,234.97425379999913,None,235.50751820000005,None,235.50751820000005,None,right,0.2842700000037439,235.50751820000005,None,,,001,2021_Mar_17_1125,AB_pic,2020.2.10,59.985087710613904,
AB,lag7,7,3,10,0.1,0.0,0.2,main,,,,,0,37,37,37,,,,,,,fishingrod.jpg,parkingmeter.jpg,toad.jpg,jellybean.jpg,chair.jpg,horseshoe.jpg,whiteout.jpg,boxingglove01.jpg,accordion01.jpg,trophy01.jpg,slug.jpg,jeep.jpg,surfboard.jpg,raccoon.jpg,exitsign.jpg,cashregister01.jpg,cactus.jpg,,,,,,,0,0,12,,,,,.\resources\trophy01.jpg,,,False,,,,,,,,,True,,,,,,,,,244.42321673999686,None,None,244.42321673999686,None,,,,,,,235.82401900000696,238.57428570000047,235.82401900000696,238.57428570000047,238.3071898000053,None,0.13115929999912623,0.23119819999556057,0.33117269999638665,0.4311400999868056,0.5306982999900356,0.6311158999887994,0.7311121999955503,0.8307520999951521,0.9307284999958938,1.0306772999902023,1.130702399997972,1.2306485999870347,1.330659100000048,,238.80715300000156,None,238.80715300000156,None,240.1570694000111,None,240.1570694000111,None,right,2.3867376999987755,240.1570694000111,None,242.57333949999884,None,242.57333949999884,None,left,1.8343974000017624,242.57333949999884,None,,,001,2021_Mar_17_1125,AB_pic,2020.2.10,59.985087710613904,
AB,lag4,4,3,7,0.1,0.0,0.2,main,,,,,0,38,38,38,,,,,,,exitsign.jpg,chair.jpg,toad.jpg,triangle.jpg,jellybean.jpg,greatwhiteshark.jpg,horseshoe.jpg,trophy01.jpg,zipper.jpg,parkingmeter.jpg,surfboard.jpg,slug.jpg,fishskeleton.jpg,cactus.jpg,cigar.jpg,jeep.jpg,key07.jpg,,,,,,,0,1,9,,,,,.\resources\horseshoe.jpg,,,False,,,,,,,,,False,,,,,,,,,250.35616863999894,None,None,250.35616863999894,None,,,,,,,244.4232173000055,247.17323710001074,244.4232173000055,247.17323710001074,246.92328760000237,None,0.13124809999135323,0.23125629998685326,0.3312458999862429,0.43125129998952616,0.5312453999940772,0.6312438999884762,0.7313013999955729,0.8312300999969011,0.9312134999927366,1.0312049999920418,,,,,247.42325190000702,None,247.42325190000702,None,248.45651440000802,None,248.45651440000802,None,right,1.111245099993539,248.45651440000802,None,249.58949660000508,None,249.58949660000508,None,left,0.7463051000086125,249.58949660000508,None,,,001,2021_Mar_17_1125,AB_pic,2020.2.10,59.985087710613904,
AB,lag3,3,5,8,0.1,0.0,0.2,main,,,,,0,39,39,39,,,,,,,pingpongtable.jpg,vulture.jpg,toad.jpg,cactus.jpg,fishskeleton.jpg,greatwhiteshark.jpg,key07.jpg,recyclingbin.jpg,trophy01.jpg,parkingmeter.jpg,slug.jpg,boxingglove01.jpg,masquerademask01.jpg,raccoon.jpg,exitsign.jpg,jellybean.jpg,triangle.jpg,,,,,,,0,1,10,,,,,.\resources\recyclingbin.jpg,,,False,,,,,,,,,False,,,,,,,,,257.4725057399992,None,None,257.4725057399992,None,,,,,,,250.35612870000477,253.10623180000402,250.35612870000477,253.10623180000402,252.85621810000157,None,0.1316304000065429,0.2316430000064429,0.33171120000770316,0.43161980000149924,0.5316238999948837,0.6316515000071377,0.7316236000042409,0.8315980000043055,0.9316153999970993,1.0315674000012223,1.1315868999954546,,,,253.35617790000106,None,253.35617790000106,None,254.48945960000856,None,254.48945960000856,None,right,2.254298400002881,254.48945960000856,None,256.7724462000042,None,256.7724462000042,None,left,0.6753002000041306,256.7724462000042,None,,,001,2021_Mar_17_1125,AB_pic,2020.2.10,59.985087710613904,
AB,lag2,2,4,6,0.1,0.0,0.2,main,,,,,0,40,40,40,,,,,,,whiteout.jpg,jeep.jpg,jellybean.jpg,cactus.jpg,accordion01.jpg,chair.jpg,horseshoe.jpg,triangle.jpg,locker.jpg,boxingglove01.jpg,masquerademask01.jpg,slug.jpg,exitsign.jpg,parkingmeter.jpg,surfboard.jpg,raccoon.jpg,greatwhiteshark.jpg,,,,,,,0,0,8,,,,,.\resources\chair.jpg,,,False,,,,,,,,,True,,,,,,,,,262.772200740008,None,None,262.772200740008,None,,,,,,,257.48920460000227,260.23940890000085,257.48920460000227,260.23940890000085,259.97278820000065,None,0.13161870000476483,0.23163860000204295,0.33161209999525454,0.431622599993716,0.5316639999946347,0.6315863000054378,0.7315792000008514,0.8315718999947421,0.9315958999941358,,,,,,260.4729098000098,None,260.4729098000098,None,261.42267050000373,None,261.42267050000373,None,left,0.9851137999939965,261.42267050000373,None,262.4388973000023,None,262.4388973000023,None,right,0.3129685000021709,262.4388973000023,None,,,001,2021_Mar_17_1125,AB_pic,2020.2.10,59.985087710613904,
AB,lag1,1,4,5,0.1,0.0,0.2,main,,,,,0,41,41,41,,,,,,,skippingrope.jpg,parkingmeter.jpg,fishingrod.jpg,whiteout.jpg,pingpongtable.jpg,tiger02.jpg,trophy01.jpg,cashregister01.jpg,recyclingbin.jpg,slug.jpg,horseshoe.jpg,jeep.jpg,key07.jpg,exitsign.jpg,zipper.jpg,greatwhiteshark.jpg,raccoon.jpg,,,,,,,1,0,7,,,,,.\resources\pingpongtable.jpg,,,True,,,,,,,,,True,,,,,,,,,268.00524124000367,None,None,268.00524124000367,None,,,,,,,262.7888746000099,265.53915770001186,262.7888746000099,265.53915770001186,265.27250659999845,None,0.13080270000500605,0.23122260000673123,0.33119409999926575,0.4311885000061011,0.5314364000078058,0.6312412999977823,0.731193900006474,0.8307341000036104,,,,,,,265.77204720000736,None,265.77204720000736,None,266.6221222000022,None,266.6221222000022,None,left,1.0337012000090908,266.6221222000022,None,267.68857070000377,None,267.68857070000377,None,right,0.28715980000561103,267.68857070000377,None,,,001,2021_Mar_17_1125,AB_pic,2020.2.10,59.985087710613904,
AB,lag6,6,5,11,0.1,0.0,0.2,main,,,,,0,42,42,42,,,,,,,chair.jpg,raccoon.jpg,parkingmeter.jpg,greatwhiteshark.jpg,fishskeleton.jpg,pingpongtable.jpg,cactus.jpg,boxingglove01.jpg,masquerademask01.jpg,cigar.jpg,jellybean.jpg,tiger02.jpg,vulture.jpg,accordion01.jpg,locker.jpg,skippingrope.jpg,jeep.jpg,,,,,,,1,0,13,,,,,.\resources\jellybean.jpg,,,True,,,,,,,,,True,,,,,,,,,274.02151094000874,None,None,274.02151094000874,None,,,,,,,268.0219090000028,270.7721373000095,268.0219090000028,270.7721373000095,270.5050293000095,None,0.1317224999947939,0.23152240000490565,0.3315135000011651,0.43107720000261907,0.5315286999975797,0.631055899997591,0.7310514999990119,0.8310687000048347,0.9310300000070129,1.0310471999982838,1.131036499995389,1.2310744999995222,1.331025999999838,1.4310108000063337,271.00502940001024,None,271.00502940001024,None,272.4549268999981,None,272.4549268999981,None,left,0.9529392999975244,272.4549268999981,None,273.45486560001154,None,273.45486560001154,None,left,0.5450044999888632,273.45486560001154,None,,,001,2021_Mar_17_1125,AB_pic,2020.2.10,59.985087710613904,
AB,lag5,5,5,10,0.1,0.0,0.2,main,,,,,0,43,43,43,,,,,,,jellybean.jpg,fishingrod.jpg,whiteout.jpg,exitsign.jpg,raccoon.jpg,chair.jpg,cigar.jpg,skippingrope.jpg,slug.jpg,horseshoe.jpg,surfboard.jpg,tiger02.jpg,recyclingbin.jpg,greatwhiteshark.jpg,key07.jpg,locker.jpg,accordion01.jpg,,,,,,,0,1,12,,,,,.\resources\horseshoe.jpg,,,False,,,,,,,,,False,,,,,,,,,279.9377759400013,None,None,279.9377759400013,None,,,,,,,274.03815710000345,276.78841230001126,274.03815710000345,276.78841230001126,276.5213119000109,None,0.13099269999656826,0.23044470000604633,0.3309466000064276,0.4308540000056382,0.5308463999972446,0.6304190999944694,0.7303935999952955,0.8303870999952778,0.9304085000039777,1.030393599998206,1.1303925999964122,1.2303683999925852,1.3303583999950206,,277.0213128000032,None,277.0213128000032,None,278.3712205000047,None,278.3712205000047,None,right,1.0286591000040062,278.3712205000047,None,279.43781620000664,None,279.43781620000664,None,left,0.4740172000019811,279.43781620000664,None,,,001,2021_Mar_17_1125,AB_pic,2020.2.10,59.985087710613904,
AB,lag7,7,5,12,0.1,0.0,0.2,main,,,,,0,44,44,44,,,,,,,fishingrod.jpg,boxingglove01.jpg,pingpongtable.jpg,horseshoe.jpg,fishskeleton.jpg,accordion01.jpg,whiteout.jpg,locker.jpg,chair.jpg,cashregister01.jpg,surfboard.jpg,tiger02.jpg,vulture.jpg,greatwhiteshark.jpg,jellybean.jpg,jeep.jpg,masquerademask01.jpg,,,,,,,0,0,14,,,,,.\resources\tiger02.jpg,,,False,,,,,,,,,True,,,,,,,,,285.45406774,None,None,285.45406774,None,,,,,,,279.9544775000104,282.7046843999997,279.9544775000104,282.7046843999997,282.43761310000264,None,0.13081790000433102,0.23043379999580793,0.33099529999890365,0.4308312999928603,0.5309754000045359,0.630812599993078,0.7303771000006236,0.8303435999987414,0.9303644000028726,1.030354599992279,1.1303833999991184,1.2303300999919884,1.3303458000009414,1.4303362999926321,282.9375730000029,None,282.9375730000029,None,284.4876287000079,None,284.4876287000079,None,right,0.5042526000033831,284.4876287000079,None,285.03748930001166,None,285.03748930001166,None,right,0.39431210000475403,285.03748930001166,None,1.5303162999916822,,001,2021_Mar_17_1125,AB_pic,2020.2.10,59.985087710613904,
AB,lag3,3,4,7,0.1,0.0,0.2,main,,,,,0,45,45,45,,,,,,,recyclingbin.jpg,locker.jpg,fishingrod.jpg,key07.jpg,trophy01.jpg,whiteout.jpg,jellybean.jpg,jeep.jpg,boxingglove01.jpg,masquerademask01.jpg,toad.jpg,cactus.jpg,vulture.jpg,pingpongtable.jpg,parkingmeter.jpg,raccoon.jpg,triangle.jpg,,,,,,,0,1,9,,,,,.\resources\jellybean.jpg,,,False,,,,,,,,,False,,,,,,,,,290.9537084399999,None,None,290.9537084399999,None,,,,,,,285.4708885,288.2209733000054,285.4708885,288.2209733000054,287.9543405000004,None,0.13110800000140443,0.23110819999419618,0.3311022999987472,0.43108850000135135,0.5310941000061575,0.6310716000007233,0.7310830000060378,0.831093900007545,0.9310699000052409,1.0310719999979483,,,,,288.4538773000095,None,288.4538773000095,None,289.5038141999976,None,289.5038141999976,None,right,0.9918883999926038,289.5038141999976,None,290.53706090000924,None,290.53706090000924,None,left,0.39080720000492875,290.53706090000924,None,,,001,2021_Mar_17_1125,AB_pic,2020.2.10,59.985087710613904,
AB,lag2,2,5,7,0.1,0.0,0.2,main,,,,,0,46,46,46,,,,,,,fishskeleton.jpg,slug.jpg,accordion01.jpg,locker.jpg,key07.jpg,chair.jpg,zipper.jpg,trophy01.jpg,triangle.jpg,surfboard.jpg,recyclingbin.jpg,raccoon.jpg,greatwhiteshark.jpg,pingpongtable.jpg,horseshoe.jpg,boxingglove01.jpg,cigar.jpg,,,,,,,0,0,9,,,,,.\resources\zipper.jpg,,,False,,,,,,,,,True,,,,,,,,,296.0200728400014,None,None,296.0200728400014,None,,,,,,,290.9703707000008,293.72058110000216,290.9703707000008,293.72058110000216,293.4535293000081,None,0.13108610000927,0.2310732000041753,0.3310770000098273,0.4310661000054097,0.531056300009368,0.6306325000041397,0.7306726000097115,0.8306864000041969,0.9306471000018064,1.030656100003398,,,,,293.9534946000058,None,293.9534946000058,None,295.00346620001073,None,295.00346620001073,None,right,0.6442981000000145,295.00346620001073,None,295.6867094000045,None,295.6867094000045,None,right,0.3051151999970898,295.6867094000045,None,,,001,2021_Mar_17_1125,AB_pic,2020.2.10,59.985087710613904,
AB,lag6,6,5,11,0.1,0.0,0.2,main,,,,,0,47,47,47,,,,,,,chair.jpg,cashregister01.jpg,pingpongtable.jpg,key07.jpg,surfboard.jpg,greatwhiteshark.jpg,tiger02.jpg,skippingrope.jpg,zipper.jpg,locker.jpg,raccoon.jpg,trophy01.jpg,triangle.jpg,accordion01.jpg,slug.jpg,exitsign.jpg,parkingmeter.jpg,,,,,,,0,1,13,,,,,.\resources\raccoon.jpg,,,False,,,,,,,,,False,,,,,,,,,302.45293023999693,None,None,302.45293023999693,None,,,,,,,296.0368651000026,298.7869255000114,296.0368651000026,298.7869255000114,298.51985540000896,None,0.13152439999976195,0.23144580000371207,0.3314172999962466,0.4314682999975048,0.5314242000022205,0.631008299998939,0.7309851000027265,0.8310558000084711,0.9309975000069244,1.0310259999969276,1.131035400001565,1.2309739000047557,1.3309615000034682,1.430954900002689,299.0198298000032,None,299.0198298000032,None,300.46973389999766,None,300.46973389999766,None,left,1.410075699997833,300.46973389999766,None,301.902963600005,None,301.902963600005,None,left,0.5287594999972498,301.902963600005,None,,,001,2021_Mar_17_1125,AB_pic,2020.2.10,59.985087710613904,
AB,lag1,1,4,5,0.1,0.0,0.2,main,,,,,0,48,48,48,,,,,,,cigar.jpg,whiteout.jpg,toad.jpg,trophy01.jpg,fishskeleton.jpg,tiger02.jpg,slug.jpg,vulture.jpg,cashregister01.jpg,boxingglove01.jpg,locker.jpg,pingpongtable.jpg,chair.jpg,jeep.jpg,parkingmeter.jpg,recyclingbin.jpg,raccoon.jpg,,,,,,,0,0,7,,,,,.\resources\fishskeleton.jpg,,,False,,,,,,,,,True,,,,,,,,,307.835908940011,None,None,307.835908940011,None,,,,,,,302.46960760001093,305.21987179999996,302.46960760001093,305.21987179999996,304.9532384000049,None,0.13092779999715276,0.23085340000397991,0.33082040000590496,0.4308833999966737,0.5308614999958081,0.6308796999946935,0.7308422000060091,0.8308375000051456,,,,,,,305.4527730000118,None,305.4527730000118,None,306.30315110000083,None,306.30315110000083,None,right,1.0005162000015844,306.30315110000083,None,307.3359352000116,None,307.3359352000116,None,left,0.47180159999697935,307.3359352000116,None,,,001,2021_Mar_17_1125,AB_pic,2020.2.10,59.985087710613904,
AB,lag4,4,3,7,0.1,0.0,0.2,main,,,,,0,49,49,49,,,,,,,vulture.jpg,accordion01.jpg,surfboard.jpg,triangle.jpg,jellybean.jpg,whiteout.jpg,greatwhiteshark.jpg,recyclingbin.jpg,slug.jpg,cashregister01.jpg,fishingrod.jpg,jeep.jpg,key07.jpg,toad.jpg,cactus.jpg,raccoon.jpg,boxingglove01.jpg,,,,,,,0,0,9,,,,,.\resources\greatwhiteshark.jpg,,,False,,,,,,,,,True,,,,,,,,,313.26892894000775,None,None,313.26892894000775,None,,,,,,,307.852575900004,310.6024419000023,307.852575900004,310.6024419000023,310.33579350000946,None,0.1312337999988813,0.2312336999893887,0.33122829999774694,0.43121869998867624,0.5312146999931429,0.6312211999902502,0.7312398999929428,0.831200100001297,0.9311873999977252,1.0311814000015147,,,,,310.8357526000036,None,310.8357526000036,None,311.8856986000028,None,311.8856986000028,None,right,1.0020260000019334,311.8856986000028,None,312.93559839999944,None,312.93559839999944,None,right,0.3121415000059642,312.93559839999944,None,,,001,2021_Mar_17_1125,AB_pic,2020.2.10,59.985087710613904,
AB,lag3,3,4,7,0.1,0.0,0.2,main,,,,,0,50,50,50,,,,,,,jellybean.jpg,cactus.jpg,exitsign.jpg,masquerademask01.jpg,triangle.jpg,zipper.jpg,trophy01.jpg,jeep.jpg,surfboard.jpg,key07.jpg,toad.jpg,vulture.jpg,whiteout.jpg,parkingmeter.jpg,fishskeleton.jpg,boxingglove01.jpg,recyclingbin.jpg,,,,,,,0,0,9,,,,,.\resources\trophy01.jpg,,,False,,,,,,,,,True,,,,,,,,,319.7018341400035,None,None,319.7018341400035,None,,,,,,,313.2856096000032,316.03540860000066,313.2856096000032,316.03540860000066,315.76877270000114,None,0.13118180001038127,0.23117690000799485,0.3311866000003647,0.43115689999831375,0.531150599999819,0.63114250000217,0.7311607000010554,0.8311344000103418,0.9311261000111699,1.031128800008446,,,,,316.26871570000367,None,316.26871570000367,None,317.31883280001057,None,317.31883280001057,None,left,2.056906199999503,317.31883280001057,None,319.41850810000324,None,319.41850810000324,None,right,0.2532220000139205,319.41850810000324,None,,,001,2021_Mar_17_1125,AB_pic,2020.2.10,59.985087710613904,
AB,lag7,7,5,12,0.1,0.0,0.2,main,,,,,0,51,51,51,,,,,,,accordion01.jpg,fishingrod.jpg,boxingglove01.jpg,vulture.jpg,cactus.jpg,parkingmeter.jpg,zipper.jpg,toad.jpg,masquerademask01.jpg,greatwhiteshark.jpg,raccoon.jpg,fishskeleton.jpg,horseshoe.jpg,chair.jpg,trophy01.jpg,jeep.jpg,skippingrope.jpg,,,,,,,0,0,14,,,,,.\resources\fishskeleton.jpg,,,False,,,,,,,,,True,,,,,,,,,326.00138524000795,None,None,326.00138524000795,None,,,,,,,319.7184952000098,322.4683043999976,319.7184952000098,322.4683043999976,322.2016583000077,None,0.13099269999656826,0.23054449999472126,0.3309735999937402,0.4310003999999026,0.5305308999959379,0.6305491999955848,0.7309414999908768,0.8309329000039725,0.9304896999965422,1.0305020999949193,1.1304957999964245,1.230475699994713,1.3304699000000255,1.4304357999935746,322.7015986000042,None,322.7015986000042,None,324.2515192999999,None,324.2515192999999,None,right,0.5561598000058439,324.2515192999999,None,324.85144800000126,None,324.85144800000126,None,left,1.1324080000049435,324.85144800000126,None,1.5304493000003276,,001,2021_Mar_17_1125,AB_pic,2020.2.10,59.985087710613904,
AB,lag1,1,5,6,0.1,0.0,0.2,main,,,,,0,52,52,52,,,,,,,chair.jpg,whiteout.jpg,cashregister01.jpg,accordion01.jpg,trophy01.jpg,fishingrod.jpg,toad.jpg,parkingmeter.jpg,greatwhiteshark.jpg,tiger02.jpg,jellybean.jpg,locker.jpg,vulture.jpg,cigar.jpg,exitsign.jpg,fishskeleton.jpg,raccoon.jpg,,,,,,,0,1,8,,,,,.\resources\fishingrod.jpg,,,False,,,,,,,,,False,,,,,,,,,331.567716440004,None,None,331.567716440004,None,,,,,,,326.01804470000206,328.76830450000125,326.01804470000206,328.76830450000125,328.5012136000005,None,0.13173459999961779,0.23170970000501256,0.33169140000245534,0.4313018000102602,0.5316900000034366,0.6312761000008322,0.7312513000069885,0.8312822000007145,0.9312545000138925,,,,,,329.00120060000336,None,329.00120060000336,None,329.95113670000865,None,329.95113670000865,None,right,1.2646864999987883,329.95113670000865,None,331.2510454000003,None,331.2510454000003,None,left,0.29282259999308735,331.2510454000003,None,,,001,2021_Mar_17_1125,AB_pic,2020.2.10,59.985087710613904,
AB,lag4,4,4,8,0.1,0.0,0.2,main,,,,,0,53,53,53,,,,,,,slug.jpg,exitsign.jpg,tiger02.jpg,surfboard.jpg,accordion01.jpg,zipper.jpg,cigar.jpg,chair.jpg,greatwhiteshark.jpg,vulture.jpg,jellybean.jpg,cactus.jpg,skippingrope.jpg,whiteout.jpg,pingpongtable.jpg,key07.jpg,fishskeleton.jpg,,,,,,,0,1,10,,,,,.\resources\chair.jpg,,,False,,,,,,,,,False,,,,,,,,,337.23401384001045,None,None,337.23401384001045,None,,,,,,,331.58436439999787,334.33459610000136,331.58436439999787,334.33459610000136,334.067942499998,None,0.13030299999809358,0.23029189999215305,0.3302736999903573,0.43028199998661876,0.5302782999933697,0.6302695999911521,0.7302624999865657,0.8302519999997457,0.9302627999859396,1.029839599999832,1.129822899994906,,,,334.58461920000263,None,334.58461920000263,None,335.717381399998,None,335.717381399998,None,right,0.8904008999961661,335.717381399998,None,336.63402569999744,None,336.63402569999744,None,left,0.5818499000015436,336.63402569999744,None,,,001,2021_Mar_17_1125,AB_pic,2020.2.10,59.985087710613904,
AB,lag6,6,5,11,0.1,0.0,0.2,main,,,,,0,54,54,54,,,,,,,fishskeleton.jpg,fishingrod.jpg,greatwhiteshark.jpg,cactus.jpg,exitsign.jpg,toad.jpg,cigar.jpg,masquerademask01.jpg,zipper.jpg,triangle.jpg,cashregister01.jpg,key07.jpg,chair.jpg,slug.jpg,tiger02.jpg,accordion01.jpg,whiteout.jpg,,,,,,,1,0,13,,,,,.\resources\cashregister01.jpg,,,True,,,,,,,,,True,,,,,,,,,342.9669492400062,None,None,342.9669492400062,None,,,,,,,337.2506558000023,340.00088540000434,337.2506558000023,340.00088540000434,339.7342370999977,None,0.1306131000019377,0.23096739999891724,0.33098900000914,0.4305220000096597,0.5305267000076128,0.6305235000036191,0.7305219999980181,0.8305199000024004,0.9305223999981536,1.0304900000046473,1.130485800007591,1.2304928000085056,1.330485900005442,1.430499599999166,340.2338280999975,None,340.2338280999975,None,341.68382310000015,None,341.68382310000015,None,left,0.9560184000001755,341.68382310000015,None,342.68362300000445,None,342.68362300000445,None,right,0.2601567999954568,342.68362300000445,None,,,001,2021_Mar_17_1125,AB_pic,2020.2.10,59.985087710613904,
AB,lag2,2,4,6,0.1,0.0,0.2,main,,,,,0,55,55,55,,,,,,,tiger02.jpg,pingpongtable.jpg,locker.jpg,key07.jpg,zipper.jpg,parkingmeter.jpg,skippingrope.jpg,fishskeleton.jpg,accordion01.jpg,jeep.jpg,fishingrod.jpg,toad.jpg,horseshoe.jpg,jellybean.jpg,whiteout.jpg,boxingglove01.jpg,cactus.jpg,,,,,,,0,0,8,,,,,.\resources\parkingmeter.jpg,,,False,,,,,,,,,True,,,,,,,,,348.2999262400044,None,None,348.2999262400044,None,,,,,,,342.983742299999,345.7338416999992,342.983742299999,345.7338416999992,345.4667741000012,None,0.13164569999207743,0.23163989999738988,0.33119599999918137,0.4316246999951545,0.5316995000030147,0.6312020999903325,0.7311838999885367,0.8311560000001919,0.9311894999991637,,,,,,345.96674200000416,None,345.96674200000416,None,346.916813200005,None,346.916813200005,None,right,0.9549514000100316,346.916813200005,None,347.8999233000068,None,347.8999233000068,None,left,0.37985090000438504,347.8999233000068,None,,,001,2021_Mar_17_1125,AB_pic,2020.2.10,59.985087710613904,
AB,lag5,5,4,9,0.1,0.0,0.2,main,,,,,0,56,56,56,,,,,,,zipper.jpg,exitsign.jpg,jeep.jpg,key07.jpg,greatwhiteshark.jpg,horseshoe.jpg,locker.jpg,triangle.jpg,surfboard.jpg,jellybean.jpg,trophy01.jpg,tiger02.jpg,vulture.jpg,cactus.jpg,boxingglove01.jpg,slug.jpg,recyclingbin.jpg,,,,,,,0,0,11,,,,,.\resources\surfboard.jpg,,,False,,,,,,,,,True,,,,,,,,,353.5829191400044,None,None,353.5829191400044,None,,,,,,,348.31658260000404,351.0668275000062,348.31658260000404,351.0668275000062,350.80016670000623,None,0.13145270000677556,0.2313985000073444,0.3309692000038922,0.4310130000085337,0.53094830000191,0.630932500003837,0.7309128000051714,0.8308910000050673,0.9309074000047985,1.0308880000084173,1.1308824000007007,1.2308611000044039,,,351.29971180000575,None,351.29971180000575,None,352.54971060001117,None,352.54971060001117,None,right,0.6580078999977559,352.54971060001117,None,353.2497505000065,None,353.2497505000065,None,right,0.31804399999964517,353.2497505000065,None,,,001,2021_Mar_17_1125,AB_pic,2020.2.10,59.985087710613904,
AB,lag2,2,3,5,0.1,0.0,0.2,main,,,,,0,57,57,57,,,,,,,horseshoe.jpg,parkingmeter.jpg,cigar.jpg,whiteout.jpg,skippingrope.jpg,zipper.jpg,masquerademask01.jpg,raccoon.jpg,fishingrod.jpg,toad.jpg,greatwhiteshark.jpg,accordion01.jpg,exitsign.jpg,locker.jpg,recyclingbin.jpg,slug.jpg,boxingglove01.jpg,,,,,,,0,0,7,,,,,.\resources\skippingrope.jpg,,,False,,,,,,,,,True,,,,,,,,,360.11584974001016,None,None,360.11584974001016,None,,,,,,,353.5995893000072,356.34990640000615,353.5995893000072,356.34990640000615,356.08326100000704,None,0.13159609999274835,0.2316307000000961,0.3316378000017721,0.43160789999819826,0.5316075000009732,0.6316060999961337,0.7316038999997545,0.8315910999954212,,,,,,,356.5827447000047,None,356.5827447000047,None,357.43288230001053,None,357.43288230001053,None,right,2.2148337999969954,357.43288230001053,None,359.68253099999856,None,359.68253099999856,None,left,0.41310749998956453,359.68253099999856,None,,,001,2021_Mar_17_1125,AB_pic,2020.2.10,59.985087710613904,
AB,lag6,6,5,11,0.1,0.0,0.2,main,,,,,0,58,58,58,,,,,,,pingpongtable.jpg,vulture.jpg,zipper.jpg,raccoon.jpg,skippingrope.jpg,whiteout.jpg,slug.jpg,parkingmeter.jpg,tiger02.jpg,chair.jpg,triangle.jpg,accordion01.jpg,trophy01.jpg,boxingglove01.jpg,fishingrod.jpg,recyclingbin.jpg,surfboard.jpg,,,,,,,0,0,13,,,,,.\resources\triangle.jpg,,,False,,,,,,,,,True,,,,,,,,,366.1820731400003,None,None,366.1820731400003,None,,,,,,,360.1326673000003,362.8827541000064,360.1326673000003,362.8827541000064,362.6160668000084,None,0.13140339999517892,0.23125309999159072,0.33113009999215137,0.43068209999182727,0.5306902000011178,0.6306863999925554,0.7306583999888971,0.8306938000023365,0.9306669999932637,1.0306692000012845,1.1306584999983897,1.2306715000013355,1.3306527999957325,1.4306586000020616,363.13276430001133,None,363.13276430001133,None,364.56553430001077,None,364.56553430001077,None,left,1.2101114999968559,364.56553430001077,None,365.81547640000645,None,365.81547640000645,None,left,0.33620939998945687,365.81547640000645,None,,,001,2021_Mar_17_1125,AB_pic,2020.2.10,59.985087710613904,
AB,lag7,7,4,11,0.1,0.0,0.2,main,,,,,0,59,59,59,,,,,,,greatwhiteshark.jpg,horseshoe.jpg,fishingrod.jpg,cashregister01.jpg,locker.jpg,fishskeleton.jpg,cactus.jpg,boxingglove01.jpg,parkingmeter.jpg,masquerademask01.jpg,accordion01.jpg,recyclingbin.jpg,jeep.jpg,skippingrope.jpg,vulture.jpg,whiteout.jpg,zipper.jpg,,,,,,,0,0,13,,,,,.\resources\accordion01.jpg,,,False,,,,,,,,,True,,,,,,,,,371.7983892400007,None,None,371.7983892400007,None,,,,,,,366.19879370000854,368.94899570000416,366.19879370000854,368.94899570000416,368.68232920000446,None,0.13083939999341965,0.23125359999539796,0.33120219998818357,0.43078809999860823,0.5307799000001978,0.6307468000013614,0.7307588999974541,0.8307529000012437,0.9307200999901397,1.0307123999955365,1.1307044999994105,1.2307631000003312,1.3307305999915116,1.4307070999930147,369.18190100000356,None,369.18190100000356,None,370.63194810001005,None,370.63194810001005,None,right,0.8717631000035908,370.63194810001005,None,371.5483871000033,None,371.5483871000033,None,right,0.2272962999995798,371.5483871000033,None,,,001,2021_Mar_17_1125,AB_pic,2020.2.10,59.985087710613904,
AB,lag5,5,3,8,0.1,0.0,0.2,main,,,,,0,60,60,60,,,,,,,vulture.jpg,chair.jpg,accordion01.jpg,raccoon.jpg,fishingrod.jpg,pingpongtable.jpg,key07.jpg,exitsign.jpg,cactus.jpg,recyclingbin.jpg,surfboard.jpg,cashregister01.jpg,cigar.jpg,parkingmeter.jpg,trophy01.jpg,greatwhiteshark.jpg,skippingrope.jpg,,,,,,,1,0,10,,,,,.\resources\exitsign.jpg,,,True,,,,,,,,,True,,,,,,,,,377.2313461399972,None,None,377.2313461399972,None,,,,,,,371.8150338999985,374.56527690000075,371.8150338999985,374.56527690000075,374.29820140000083,None,0.13094679999630898,0.2309456999937538,0.3309250000020256,0.4309355000004871,0.5309187999955611,0.631007200005115,0.7309096999961184,0.8305015000078129,0.9305017000006046,1.0305191999941599,1.1305210999998963,,,,374.79816610000853,None,374.79816610000853,None,375.9481278000021,None,375.9481278000021,None,left,1.011660900010611,375.9481278000021,None,376.98131139999896,None,376.98131139999896,None,right,0.23439019999932498,376.98131139999896,None,,,001,2021_Mar_17_1125,AB_pic,2020.2.10,59.985087710613904,
AB,lag3,3,5,8,0.1,0.0,0.2,main,,,,,0,61,61,61,,,,,,,whiteout.jpg,pingpongtable.jpg,horseshoe.jpg,cashregister01.jpg,vulture.jpg,cigar.jpg,raccoon.jpg,greatwhiteshark.jpg,key07.jpg,masquerademask01.jpg,fishingrod.jpg,exitsign.jpg,surfboard.jpg,zipper.jpg,fishskeleton.jpg,tiger02.jpg,skippingrope.jpg,,,,,,,0,1,10,,,,,.\resources\greatwhiteshark.jpg,,,False,,,,,,,,,False,,,,,,,,,382.79766894000204,None,None,382.79766894000204,None,,,,,,,377.2480099000095,379.99822290000156,377.2480099000095,379.99822290000156,379.7316004000022,None,0.13093669999216218,0.23092390000238083,0.33093680000456516,0.4305311999924015,0.5305341999919619,0.6304990999924485,0.7304992999997921,0.830533899992588,0.9304842999990797,1.0304958000051556,1.1304937999957474,,,,380.23114400000486,None,380.23114400000486,None,381.3810826000117,None,381.3810826000117,None,right,1.0345883999980288,381.3810826000117,None,382.4476558000024,None,382.4476558000024,None,left,0.3279928999982076,382.4476558000024,None,,,001,2021_Mar_17_1125,AB_pic,2020.2.10,59.985087710613904,
AB,lag4,4,5,9,0.1,0.0,0.2,main,,,,,0,62,62,62,,,,,,,whiteout.jpg,accordion01.jpg,triangle.jpg,trophy01.jpg,cigar.jpg,parkingmeter.jpg,greatwhiteshark.jpg,skippingrope.jpg,slug.jpg,raccoon.jpg,zipper.jpg,toad.jpg,surfboard.jpg,boxingglove01.jpg,vulture.jpg,key07.jpg,locker.jpg,,,,,,,0,1,11,,,,,.\resources\slug.jpg,,,False,,,,,,,,,False,,,,,,,,,389.4638693399975,None,None,389.4638693399975,None,,,,,,,382.81435330001113,385.56453860001056,382.81435330001113,385.56453860001056,385.29747230000794,None,0.13105670000368264,0.23106180000468157,0.3311452000052668,0.431049200007692,0.5310705000010785,0.6310335000016494,0.7310541000042576,0.830629999996745,0.9305873999983305,1.0305996999959461,1.1305643999949098,1.2305747000064002,,,385.79744100000244,None,385.79744100000244,None,387.04736050000065,None,387.04736050000065,None,right,0.9843619000021135,387.04736050000065,None,388.0640937999997,None,388.0640937999997,None,left,1.3756451999943238,388.0640937999997,None,,,001,2021_Mar_17_1125,AB_pic,2020.2.10,59.985087710613904,
AB,lag1,1,3,4,0.1,0.0,0.2,main,,,,,0,63,63,63,,,,,,,fishingrod.jpg,pingpongtable.jpg,skippingrope.jpg,jellybean.jpg,surfboard.jpg,toad.jpg,whiteout.jpg,locker.jpg,jeep.jpg,masquerademask01.jpg,boxingglove01.jpg,parkingmeter.jpg,key07.jpg,trophy01.jpg,accordion01.jpg,exitsign.jpg,cactus.jpg,,,,,,,0,0,6,,,,,.\resources\jellybean.jpg,,,False,,,,,,,,,True,,,,,,,,,394.4302339400092,None,None,394.4302339400092,None,,,,,,,389.48057400000107,392.23075780000363,389.48057400000107,392.23075780000363,391.96410900000774,None,0.1315572999883443,0.231551999997464,0.3315766000014264,0.43151599999691825,0.5315415999939432,0.6314984999917215,0.73148719999881,,,,,,,,392.4636767000047,None,392.4636767000047,None,393.2140070000023,None,393.2140070000023,None,right,0.9376244000013685,393.2140070000023,None,394.19701879999775,None,394.19701879999775,None,right,0.21064170000317972,394.19701879999775,None,,,001,2021_Mar_17_1125,AB_pic,2020.2.10,59.985087710613904,
AB,lag5,5,4,9,0.1,0.0,0.2,main,,,,,0,64,64,64,,,,,,,jeep.jpg,pingpongtable.jpg,greatwhiteshark.jpg,cashregister01.jpg,trophy01.jpg,raccoon.jpg,cigar.jpg,key07.jpg,tiger02.jpg,fishskeleton.jpg,vulture.jpg,skippingrope.jpg,locker.jpg,cactus.jpg,slug.jpg,masquerademask01.jpg,parkingmeter.jpg,,,,,,,0,0,11,,,,,.\resources\tiger02.jpg,,,False,,,,,,,,,True,,,,,,,,,399.8465110400066,None,None,399.8465110400066,None,,,,,,,394.4470113999996,397.1971077000053,394.4470113999996,397.1971077000053,396.9304630000115,None,0.13163259999419097,0.23165719999815337,0.33161480000126176,0.4316204999922775,0.5316227000002982,0.6315736999968067,0.7316065999912098,0.8315888999932213,0.9315706999914255,1.0315836999943713,1.1315704000007827,1.2311659999977564,,,397.4300016000052,None,397.4300016000052,None,398.6799241999979,None,398.6799241999979,None,left,0.9117003999999724,398.6799241999979,None,399.6298785000108,None,399.6298785000108,None,right,0.18589029999566264,399.6298785000108,None,,,001,2021_Mar_17_1125,AB_pic,2020.2.10,59.985087710613904,
AB,lag4,4,3,7,0.1,0.0,0.2,main,,,,,0,65,65,65,,,,,,,exitsign.jpg,greatwhiteshark.jpg,horseshoe.jpg,fishskeleton.jpg,zipper.jpg,toad.jpg,trophy01.jpg,accordion01.jpg,raccoon.jpg,recyclingbin.jpg,fishingrod.jpg,cactus.jpg,surfboard.jpg,slug.jpg,jellybean.jpg,parkingmeter.jpg,chair.jpg,,,,,,,0,0,9,,,,,.\resources\trophy01.jpg,,,False,,,,,,,,,True,,,,,,,,,405.2128643399992,None,None,405.2128643399992,None,,,,,,,399.8631866000069,402.6130955999979,399.8631866000069,402.6130955999979,402.34689210000215,None,0.13146319999941625,0.2314671000058297,0.33144090000132564,0.43145809999259654,0.5314206000039121,0.6314794999925653,0.7314224000001559,0.8314184000046225,0.9314544999942882,1.031394999998156,,,,,402.84635780000826,None,402.84635780000826,None,403.89630659999966,None,403.89630659999966,None,left,1.0473816000012448,403.89630659999966,None,404.97952870000154,None,404.97952870000154,None,right,0.20415130000037607,404.97952870000154,None,,,001,2021_Mar_17_1125,AB_pic,2020.2.10,59.985087710613904,
AB,lag7,7,3,10,0.1,0.0,0.2,main,,,,,0,66,66,66,,,,,,,pingpongtable.jpg,toad.jpg,parkingmeter.jpg,tiger02.jpg,cashregister01.jpg,triangle.jpg,horseshoe.jpg,recyclingbin.jpg,fishskeleton.jpg,trophy01.jpg,key07.jpg,greatwhiteshark.jpg,jellybean.jpg,accordion01.jpg,fishingrod.jpg,surfboard.jpg,whiteout.jpg,,,,,,,0,0,12,,,,,.\resources\trophy01.jpg,,,False,,,,,,,,,True,,,,,,,,,410.3291773400051,None,None,410.3291773400051,None,,,,,,,405.2295268000016,407.97978480000165,405.2295268000016,407.97978480000165,407.7131273999985,None,0.1306299999996554,0.2305837000021711,0.33101609999721404,0.4305363000021316,0.5305224000039743,0.6305434999958379,0.7305783999909181,0.8305201999901328,0.9305328000045847,1.0304921999922954,1.1305142999917734,1.230486899992684,1.3305099999997765,,408.21266620000824,None,408.21266620000824,None,409.56256830001075,None,409.56256830001075,None,right,0.45308900000236463,409.56256830001075,None,410.0625376000098,None,410.0625376000098,None,right,0.24118740000994876,410.0625376000098,None,,,001,2021_Mar_17_1125,AB_pic,2020.2.10,59.985087710613904,
AB,lag2,2,3,5,0.1,0.0,0.2,main,,,,,0,67,67,67,,,,,,,accordion01.jpg,raccoon.jpg,triangle.jpg,pingpongtable.jpg,trophy01.jpg,vulture.jpg,jellybean.jpg,slug.jpg,masquerademask01.jpg,tiger02.jpg,key07.jpg,cigar.jpg,cactus.jpg,greatwhiteshark.jpg,skippingrope.jpg,chair.jpg,toad.jpg,,,,,,,0,0,7,,,,,.\resources\trophy01.jpg,,,False,,,,,,,,,True,,,,,,,,,415.37884284000756,None,None,415.37884284000756,None,,,,,,,410.34584720000566,413.09609530000307,410.34584720000566,413.09609530000307,412.8294561000075,None,0.13103649999538902,0.23059479999938048,0.3305934999953024,0.43054790000314824,0.5305526000011014,0.6305494999978691,0.7305350999959046,0.8305322999949567,,,,,,,413.3289800000057,None,413.3289800000057,None,414.1790822000039,None,414.1790822000039,None,right,0.8845566999953007,414.1790822000039,None,415.1123759000038,None,415.1123759000038,None,left,0.23929099999077152,415.1123759000038,None,,,001,2021_Mar_17_1125,AB_pic,2020.2.10,59.985087710613904,
AB,lag6,6,4,10,0.1,0.0,0.2,main,,,,,0,68,68,68,,,,,,,pingpongtable.jpg,masquerademask01.jpg,horseshoe.jpg,chair.jpg,zipper.jpg,tiger02.jpg,skippingrope.jpg,slug.jpg,fishskeleton.jpg,key07.jpg,jellybean.jpg,surfboard.jpg,raccoon.jpg,accordion01.jpg,exitsign.jpg,locker.jpg,vulture.jpg,,,,,,,1,1,12,,,,,.\resources\key07.jpg,,,True,,,,,,,,,False,,,,,,,,,420.7951575400002,None,None,420.7951575400002,None,,,,,,,415.3955105000059,418.14579780001077,415.3955105000059,418.14579780001077,417.879147700005,None,0.1306890999985626,0.2307211000006646,0.33067799999844283,0.4306896000052802,0.5306811000045855,0.6306552000023657,0.7306360000075074,0.8306305000005523,0.9306432000012137,1.0306770000024699,1.1306280999997398,1.2306154999969294,1.3306305000005523,,418.37867260001076,None,418.37867260001076,None,419.7285944000032,None,419.7285944000032,None,left,0.8232083000038983,419.7285944000032,None,420.5953152000002,None,420.5953152000002,None,left,0.18030870000075083,420.5953152000002,None,,,001,2021_Mar_17_1125,AB_pic,2020.2.10,59.985087710613904,
AB,lag1,1,4,5,0.1,0.0,0.2,main,,,,,0,69,69,69,,,,,,,cigar.jpg,parkingmeter.jpg,slug.jpg,horseshoe.jpg,greatwhiteshark.jpg,boxingglove01.jpg,exitsign.jpg,jellybean.jpg,cactus.jpg,vulture.jpg,locker.jpg,skippingrope.jpg,cashregister01.jpg,masquerademask01.jpg,zipper.jpg,surfboard.jpg,toad.jpg,,,,,,,0,0,7,,,,,.\resources\greatwhiteshark.jpg,,,False,,,,,,,,,True,,,,,,,,,426.19481154000823,None,None,426.19481154000823,None,,,,,,,420.8119696000067,423.56164179999905,420.8119696000067,423.56164179999905,423.2949903999979,None,0.1315576999913901,0.23140169998805504,0.33094400000118185,0.43090289999963716,0.5314029000001028,0.6313355999882333,0.7313261999952374,0.8308919999981299,,,,,,,423.7949578000116,None,423.7949578000116,None,424.6449500000017,None,424.6449500000017,None,right,1.0907711000036215,424.6449500000017,None,425.77820250000514,None,425.77820250000514,None,left,0.3894635000033304,425.77820250000514,None,,,001,2021_Mar_17_1125,AB_pic,2020.2.10,59.985087710613904,
AB,lag3,3,5,8,0.1,0.0,0.2,main,,,,,0,70,70,70,,,,,,,key07.jpg,greatwhiteshark.jpg,fishingrod.jpg,pingpongtable.jpg,masquerademask01.jpg,jeep.jpg,whiteout.jpg,boxingglove01.jpg,zipper.jpg,cactus.jpg,horseshoe.jpg,jellybean.jpg,chair.jpg,recyclingbin.jpg,toad.jpg,locker.jpg,raccoon.jpg,,,,,,,0,1,10,,,,,.\resources\boxingglove01.jpg,,,False,,,,,,,,,False,,,,,,,,,433.3609885400001,None,None,433.3609885400001,None,,,,,,,426.2116284000076,428.9617144000076,426.2116284000076,428.9617144000076,428.69507030000386,None,0.13090709999960382,0.23054390000470448,0.3309114000003319,0.43044820000068285,0.5304447000089567,0.6304476000077557,0.7304507000080775,0.8304319000017131,0.9305351000075461,1.0303988000086974,1.1303888999973424,,,,429.19462540000677,None,429.19462540000677,None,430.3446952000086,None,430.3446952000086,None,right,2.023050999996485,430.3446952000086,None,432.394363600004,None,432.394363600004,None,left,0.9412790999922436,432.394363600004,None,,,001,2021_Mar_17_1125,AB_pic,2020.2.10,59.985087710613904,
AB,lag4,4,3,7,0.1,0.0,0.2,main,,,,,0,71,71,71,,,,,,,pingpongtable.jpg,locker.jpg,cashregister01.jpg,toad.jpg,horseshoe.jpg,jeep.jpg,slug.jpg,key07.jpg,chair.jpg,fishingrod.jpg,boxingglove01.jpg,tiger02.jpg,cactus.jpg,triangle.jpg,vulture.jpg,jellybean.jpg,skippingrope.jpg,,,,,,,0,0,9,,,,,.\resources\slug.jpg,,,False,,,,,,,,,True,,,,,,,,,438.81063903999893,None,None,438.81063903999893,None,,,,,,,433.3776582999999,436.1279038000066,433.3776582999999,436.1279038000066,435.8612339000101,None,0.13153220000094734,0.23113779998675454,0.33110349999333266,0.431104499992216,0.5310912999993889,0.6310952999920119,0.7310774999932619,0.8310610999906203,0.9310678999900119,1.0310583999962546,,,,,436.36078010000347,None,436.36078010000347,None,437.4107198999991,None,437.4107198999991,None,right,0.900935900004697,437.4107198999991,None,438.34398230000807,None,438.34398230000807,None,left,0.4397879999887664,438.34398230000807,None,,,001,2021_Mar_17_1125,AB_pic,2020.2.10,59.985087710613904,
AB,lag1,1,3,4,0.1,0.0,0.2,main,,,,,0,72,72,72,,,,,,,triangle.jpg,slug.jpg,cashregister01.jpg,raccoon.jpg,pingpongtable.jpg,boxingglove01.jpg,chair.jpg,greatwhiteshark.jpg,zipper.jpg,cigar.jpg,jeep.jpg,cactus.jpg,key07.jpg,parkingmeter.jpg,locker.jpg,surfboard.jpg,masquerademask01.jpg,,,,,,,0,0,6,,,,,.\resources\raccoon.jpg,,,False,,,,,,,,,True,,,,,,,,,445.1768973400103,None,None,445.1768973400103,None,,,,,,,438.82729539999855,441.5775052000099,438.82729539999855,441.5775052000099,441.31044909999764,None,0.13173459999961779,0.2317129000002751,0.33172030000423547,0.4316806999995606,0.5316958000039449,0.6316495000064606,0.7316579000034835,,,,,,,,441.8104172000021,None,441.8104172000021,None,442.5608004000096,None,442.5608004000096,None,right,1.6148451999906683,442.5608004000096,None,444.21030469999823,None,444.21030469999823,None,right,0.9493874000036158,444.21030469999823,None,,,001,2021_Mar_17_1125,AB_pic,2020.2.10,59.985087710613904,
,,,,,,,,,,,,,,,,,,,,,,,trophy01.jpg,horseshoe.jpg,parkingmeter.jpg,zipper.jpg,masquerademask01.jpg,jeep.jpg,fishskeleton.jpg,slug.jpg,triangle.jpg,boxingglove01.jpg,accordion01.jpg,vulture.jpg,pingpongtable.jpg,key07.jpg,recyclingbin.jpg,jellybean.jpg,fishingrod.jpg,,,,,,,,,,,,,,,,,,,,,,,,,,,,,,,,,,,,,,,,,,,,,,,,,,,,,,,,,,,,,,,,,,,,,,,,,,,,,,,,,,,,,,,,,,,,,
