trialType,cndTyp,lag,T1_loc,T2_loc,stimLen,isi,skipProb,trials.thisRepN,trials.thisTrialN,trials.thisN,trials.thisIndex,text_3.started,text_3.stopped,key_resp_4.keys,key_resp_4.rt,key_resp_4.started,key_resp_4.stopped,img0,img1,img2,img3,img4,img5,img6,img7,img8,img9,img10,img11,img12,img13,img14,img15,img16,option1.started,option1.stopped,option2.started,option2.stopped,text_2.started,text_2.stopped,skip1,skip2,lastPresent,displayPicture.started,displayPicture.stopped,polygon_2.started,polygon_2.stopped,opt1_t1,polygon_4.started,polygon_4.stopped,cor1,option1_t1.started,option1_t1.stopped,key_resp.keys,key_resp.rt,key_resp.started,key_resp.stopped,polygon_5.started,polygon_5.stopped,cor2,option1_t2.started,option1_t2.stopped,key_resp_2.keys,key_resp_2.rt,key_resp_2.started,key_resp_2.stopped,feedbackText.started,feedbackText.stopped,text.started,text.stopped,key_resp_3.keys,key_resp_3.started,key_resp_3.stopped,participant,session,date,expName,psychopyVersion,frameRate,
,,,,,,,,,,,,5.598294700001134,None,space,76.4711696000013,5.598294700001134,None,,,,,,,,,,,,,,,,,,,,,,,,,,,,,,,,,,,,,,,,,,,,,,,,,,,,,,,,,,001,2021_Mar_17_1052,AB_pic,2020.2.10,59.99728811938894,
AB,lag3,3,4,7,0.2,0.05,0.5,0,0,0,22,,,,,,,mrpotatohead.jpg,frenchfries.jpg,bench01.jpg,hammerheadshark.jpg,christmaslights.jpg,footballhelmet.jpg,dragonfly01.jpg,shower.jpg,rubikcube.jpg,cobra.jpg,swing.jpg,lightswitch01.jpg,showerhead01.jpg,jeans01.jpg,horseshoe.jpg,acorn.jpg,fireplace.jpg,82.16511970000283,84.9145559000026,82.16511970000283,84.9145559000026,84.64786529999401,None,0,1,9,85.1480481000035,None,85.1480481000035,None,.\resources\dragonfly01.jpg,87.64769749999687,None,1,87.64769749999687,None,right,0.8296897999971407,87.64769749999687,None,88.51428550000128,None,1,88.51428550000128,None,left,0.3231182000017725,88.51428550000128,None,88.88107279999531,None,89.88087361999787,None,None,89.88087361999787,None,,001,2021_Mar_17_1052,AB_pic,2020.2.10,59.99728811938894,
AB,lag4,4,4,8,0.2,0.05,0.5,0,1,1,26,,,,,,,dragonfly01.jpg,nunchuk.jpg,horseshoe.jpg,alligator.jpg,swing.jpg,fireplace.jpg,tie02.jpg,christmaslights.jpg,bench01.jpg,saltshaker03a.jpg,hammerheadshark.jpg,ducttape.jpg,schoolbus.jpg,showerhead01.jpg,jeans01.jpg,mrpotatohead.jpg,footballhelmet.jpg,89.89754160000302,92.6473704999953,89.89754160000302,92.6473704999953,92.36408820000361,None,1,1,10,92.86398730000656,None,92.86398730000656,None,.\resources\christmaslights.jpg,95.63065409999399,None,1,95.63065409999399,None,left,1.334822599994368,95.63065409999399,None,96.99705799999356,None,1,96.99705799999356,None,left,0.3363775000034366,96.99705799999356,None,97.36372769999434,None,98.36379302000277,None,None,98.36379302000277,None,,001,2021_Mar_17_1052,AB_pic,2020.2.10,59.99728811938894,
AB,lag7,7,5,12,0.2,0.05,0.5,0,2,2,7,,,,,,,alligator.jpg,hammerheadshark.jpg,dragonfly01.jpg,acorn.jpg,swing.jpg,bench01.jpg,showerhead01.jpg,honeybee.jpg,rubikcube.jpg,tie02.jpg,cobra.jpg,ducttape.jpg,cannon.jpg,christmaslights.jpg,footballhelmet.jpg,shower.jpg,licenseplate.jpg,98.38034160000097,101.13012600000366,98.38034160000097,101.13012600000366,100.84679140000662,None,0,0,14,101.34681200000341,None,101.34681200000341,None,.\resources\ducttape.jpg,105.11320229999546,None,1,105.11320229999546,None,right,0.7641644999966957,105.11320229999546,None,105.91317329999583,None,1,105.91317329999583,None,right,0.5402680999977747,105.91317329999583,None,106.47977239999454,None,107.4797014199983,None,None,107.4797014199983,None,,001,2021_Mar_17_1052,AB_pic,2020.2.10,59.99728811938894,
AB,lag5,5,3,8,0.2,0.05,0.5,0,3,3,19,,,,,,,honeybee.jpg,tie02.jpg,fireplace.jpg,swing.jpg,rubikcube.jpg,dragonfly01.jpg,christmaslights.jpg,jeans01.jpg,frenchfries.jpg,hammerheadshark.jpg,acorn.jpg,footballhelmet.jpg,showerhead01.jpg,schoolbus.jpg,saltshaker03a.jpg,penguin.jpg,shower.jpg,107.49650759999349,110.24619370000437,107.49650759999349,110.24619370000437,109.97951710000052,None,0,1,10,110.47950230000424,None,110.47950230000424,None,.\resources\jeans01.jpg,113.24615409999387,None,1,113.24615409999387,None,right,1.2072851000120863,113.24615409999387,None,114.49589299999934,None,1,114.49589299999934,None,left,0.39751490000344347,114.49589299999934,None,114.9291927000013,None,115.92914662000548,None,None,115.92914662000548,None,,001,2021_Mar_17_1052,AB_pic,2020.2.10,59.99728811938894,
AB,lag6,6,4,10,0.2,0.05,0.5,0,4,4,24,,,,,,,harmonica.jpg,mouse.jpg,honeybee.jpg,swing.jpg,frenchfries.jpg,rubikcube.jpg,cobra.jpg,ducttape.jpg,schoolbus.jpg,saltshaker03a.jpg,tie02.jpg,licenseplate.jpg,turnstile.jpg,shower.jpg,showerhead01.jpg,hammerheadshark.jpg,christmaslights.jpg,115.94576909999887,118.69605070000398,115.94576909999887,118.69605070000398,118.41270539999823,None,1,0,12,118.91225229999691,None,118.91225229999691,None,.\resources\saltshaker03a.jpg,122.17870519999997,None,1,122.17870519999997,None,left,1.0668552999995882,122.17870519999997,None,123.27874179999344,None,1,123.27874179999344,None,right,0.47100229999341536,123.27874179999344,None,123.7786172000051,None,124.77851981999702,None,None,124.77851981999702,None,,001,2021_Mar_17_1052,AB_pic,2020.2.10,59.99728811938894,
AB,lag4,4,3,7,0.2,0.05,0.5,0,5,5,1,,,,,,,jeans01.jpg,turnstile.jpg,harmonica.jpg,showerhead01.jpg,fireplace.jpg,horseshoe.jpg,swing.jpg,footballhelmet.jpg,hammerheadshark.jpg,licenseplate.jpg,mrpotatohead.jpg,alligator.jpg,cannon.jpg,dragonfly01.jpg,christmaslights.jpg,tie02.jpg,honeybee.jpg,124.79519279999658,127.54550199999358,124.79519279999658,127.54550199999358,127.26212060000398,None,1,0,9,127.77872319999733,None,127.77872319999733,None,.\resources\swing.jpg,130.27817429999413,None,1,130.27817429999413,None,left,2.663158700001077,130.27817429999413,None,132.97798539999349,None,1,132.97798539999349,None,right,0.5553895000048215,132.97798539999349,None,133.57793670000683,None,134.5778749200079,None,None,134.5778749200079,None,,001,2021_Mar_17_1052,AB_pic,2020.2.10,59.99728811938894,
AB,lag2,2,5,7,0.2,0.05,0.5,0,6,6,9,,,,,,,footballhelmet.jpg,turnstile.jpg,cobra.jpg,jeans01.jpg,horseshoe.jpg,nunchuk.jpg,dragonfly01.jpg,swing.jpg,acorn.jpg,alligator.jpg,penguin.jpg,honeybee.jpg,fireplace.jpg,hammerheadshark.jpg,lightswitch01.jpg,frenchfries.jpg,shower.jpg,134.59466040000552,137.34442809999746,134.59466040000552,137.34442809999746,137.07776169999852,None,0,1,9,137.57774199999403,None,137.57774199999403,None,.\resources\dragonfly01.jpg,140.09439310000744,None,1,140.09439310000744,None,right,1.206964600001811,140.09439310000744,None,141.34426660000463,None,1,141.34426660000463,None,left,0.46107600000686944,141.34426660000463,None,141.82742260000668,None,142.82734872000293,None,None,142.82734872000293,None,,001,2021_Mar_17_1052,AB_pic,2020.2.10,59.99728811938894,
AB,lag7,7,3,10,0.2,0.05,0.5,0,7,7,15,,,,,,,dragonfly01.jpg,jeans01.jpg,christmaslights.jpg,showerhead01.jpg,rubikcube.jpg,alligator.jpg,cannon.jpg,saltshaker03a.jpg,penguin.jpg,tie02.jpg,ducttape.jpg,lightswitch01.jpg,mrpotatohead.jpg,turnstile.jpg,schoolbus.jpg,honeybee.jpg,fireplace.jpg,142.84402550000232,145.59384289999434,142.84402550000232,145.59384289999434,145.32717180000327,None,1,1,12,145.82713750000403,None,145.82713750000403,None,.\resources\tie02.jpg,149.09358939999947,None,1,149.09358939999947,None,left,1.2236971000093035,149.09358939999947,None,150.360276899999,None,1,150.360276899999,None,left,0.341043600012199,150.360276899999,None,150.7267695000046,None,151.7267335199984,None,None,151.7267335199984,None,,001,2021_Mar_17_1052,AB_pic,2020.2.10,59.99728811938894,
AB,lag2,2,3,5,0.2,0.05,0.5,0,8,8,18,,,,,,,fireplace.jpg,hammerheadshark.jpg,mrpotatohead.jpg,footballhelmet.jpg,bench01.jpg,mouse.jpg,acorn.jpg,shower.jpg,cannon.jpg,christmaslights.jpg,honeybee.jpg,frenchfries.jpg,turnstile.jpg,swing.jpg,licenseplate.jpg,lightswitch01.jpg,showerhead01.jpg,151.74356380000245,154.49363840000296,151.74356380000245,154.49363840000296,154.21030859999883,None,1,1,7,154.70986420000554,None,154.70986420000554,None,.\resources\bench01.jpg,156.726413700002,None,1,156.726413700002,None,left,0.807031399992411,156.726413700002,None,157.5763564999943,None,1,157.5763564999943,None,left,0.4371199000015622,157.5763564999943,None,158.05966040000203,None,159.05958352000454,None,None,159.05958352000454,None,,001,2021_Mar_17_1052,AB_pic,2020.2.10,59.99728811938894,
AB,lag1,1,5,6,0.2,0.05,0.5,0,9,9,25,,,,,,,swing.jpg,licenseplate.jpg,showerhead01.jpg,hammerheadshark.jpg,mrpotatohead.jpg,fireplace.jpg,frenchfries.jpg,alligator.jpg,shower.jpg,schoolbus.jpg,jeans01.jpg,ducttape.jpg,rubikcube.jpg,dragonfly01.jpg,acorn.jpg,nunchuk.jpg,bench01.jpg,159.07626719999826,161.8264765000058,159.07626719999826,161.8264765000058,161.543173500002,None,1,0,8,162.04273440000543,None,162.04273440000543,None,.\resources\fireplace.jpg,164.30922589999682,None,0,164.30922589999682,None,right,2.1681661999900825,164.30922589999682,None,166.5091104000021,None,1,166.5091104000021,None,right,1.4883049999916693,166.5091104000021,None,168.0423429999937,None,169.04225471999672,None,None,169.04225471999672,None,,001,2021_Mar_17_1052,AB_pic,2020.2.10,59.99728811938894,
AB,lag2,2,4,6,0.2,0.05,0.5,0,10,10,27,,,,,,,nunchuk.jpg,penguin.jpg,cobra.jpg,licenseplate.jpg,rubikcube.jpg,tie02.jpg,dragonfly01.jpg,showerhead01.jpg,bench01.jpg,saltshaker03a.jpg,hammerheadshark.jpg,harmonica.jpg,cannon.jpg,shower.jpg,horseshoe.jpg,frenchfries.jpg,mrpotatohead.jpg,169.04223350000393,171.7925130999938,169.04223350000393,171.7925130999938,171.52584240000579,None,0,1,8,172.02540430000226,None,172.02540430000226,None,.\resources\tie02.jpg,174.29206819999672,None,1,174.29206819999672,None,right,1.4492611999885412,174.29206819999672,None,175.75849500000186,None,1,175.75849500000186,None,left,0.27087870000104886,175.75849500000186,None,176.05848989999504,None,177.05834502000363,None,None,177.05834502000363,None,,001,2021_Mar_17_1052,AB_pic,2020.2.10,59.99728811938894,
AB,lag7,7,4,11,0.2,0.05,0.5,0,11,11,2,,,,,,,mouse.jpg,lightswitch01.jpg,cobra.jpg,honeybee.jpg,tie02.jpg,schoolbus.jpg,bench01.jpg,licenseplate.jpg,jeans01.jpg,ducttape.jpg,dragonfly01.jpg,shower.jpg,nunchuk.jpg,turnstile.jpg,alligator.jpg,frenchfries.jpg,acorn.jpg,177.07502920000115,179.82527260000643,177.07502920000115,179.82527260000643,179.54199070000323,None,0,1,13,180.0415093000047,None,180.0415093000047,None,.\resources\dragonfly01.jpg,183.55801700000302,None,1,183.55801700000302,None,right,0.6952924999932293,183.55801700000302,None,184.29127030000382,None,1,184.29127030000382,None,left,0.2900332999997772,184.29127030000382,None,184.60791170000448,None,185.6078046199953,None,None,185.6078046199953,None,,001,2021_Mar_17_1052,AB_pic,2020.2.10,59.99728811938894,
AB,lag6,6,5,11,0.2,0.05,0.5,0,12,12,8,,,,,,,christmaslights.jpg,horseshoe.jpg,nunchuk.jpg,cobra.jpg,saltshaker03a.jpg,alligator.jpg,showerhead01.jpg,swing.jpg,mouse.jpg,tie02.jpg,frenchfries.jpg,ducttape.jpg,penguin.jpg,cannon.jpg,honeybee.jpg,footballhelmet.jpg,bench01.jpg,185.62451209999563,188.3743689999974,185.62451209999563,188.3743689999974,188.0910234000039,None,0,1,13,188.59097999999358,None,188.59097999999358,None,.\resources\frenchfries.jpg,192.1074243000039,None,1,192.1074243000039,None,right,1.1618416999990586,192.1074243000039,None,193.30735050000658,None,1,193.30735050000658,None,left,0.6659365999948932,193.30735050000658,None,193.9906020000053,None,194.99051601999673,None,None,194.99051601999673,None,,001,2021_Mar_17_1052,AB_pic,2020.2.10,59.99728811938894,
AB,lag6,6,5,11,0.2,0.05,0.5,0,13,13,0,,,,,,,dragonfly01.jpg,shower.jpg,licenseplate.jpg,swing.jpg,frenchfries.jpg,fireplace.jpg,cobra.jpg,ducttape.jpg,penguin.jpg,alligator.jpg,mrpotatohead.jpg,tie02.jpg,nunchuk.jpg,showerhead01.jpg,hammerheadshark.jpg,cannon.jpg,christmaslights.jpg,195.00732810000773,197.75739100000646,195.00732810000773,197.75739100000646,197.47410979999404,None,0,1,13,197.97369470000558,None,197.97369470000558,None,.\resources\mrpotatohead.jpg,201.49010769999586,None,1,201.49010769999586,None,right,0.9551347000087844,201.49010769999586,None,202.49001890000363,None,1,202.49001890000363,None,left,0.4832040000037523,202.49001890000363,None,202.9900259999995,None,203.98992082000478,None,None,203.98992082000478,None,,001,2021_Mar_17_1052,AB_pic,2020.2.10,59.99728811938894,
AB,lag3,3,3,6,0.2,0.05,0.5,0,14,14,5,,,,,,,horseshoe.jpg,bench01.jpg,schoolbus.jpg,rubikcube.jpg,cobra.jpg,lightswitch01.jpg,mrpotatohead.jpg,penguin.jpg,tie02.jpg,acorn.jpg,harmonica.jpg,nunchuk.jpg,christmaslights.jpg,fireplace.jpg,jeans01.jpg,cannon.jpg,ducttape.jpg,204.00659360000282,206.75684610000462,204.00659360000282,206.75684610000462,206.473547600006,None,0,1,8,206.97306990000652,None,206.97306990000652,None,.\resources\lightswitch01.jpg,209.2396379999991,None,1,209.2396379999991,None,right,0.8855747000052361,209.2396379999991,None,210.156155699995,None,1,210.156155699995,None,left,0.5690960000065388,210.156155699995,None,210.75618470000336,None,211.7560417199973,None,None,211.7560417199973,None,,001,2021_Mar_17_1052,AB_pic,2020.2.10,59.99728811938894,
AB,lag7,7,5,12,0.2,0.05,0.5,0,15,15,21,,,,,,,ducttape.jpg,tie02.jpg,lightswitch01.jpg,mouse.jpg,swing.jpg,harmonica.jpg,hammerheadshark.jpg,cobra.jpg,horseshoe.jpg,cannon.jpg,footballhelmet.jpg,jeans01.jpg,alligator.jpg,shower.jpg,mrpotatohead.jpg,fireplace.jpg,christmaslights.jpg,211.7727298999962,214.5230215000047,211.7727298999962,214.5230215000047,214.23967369999446,None,0,0,14,214.7392453000066,None,214.7392453000066,None,.\resources\jeans01.jpg,218.50565580000693,None,1,218.50565580000693,None,right,0.37962720000359695,218.50565580000693,None,218.92241440000362,None,1,218.92241440000362,None,right,0.4028480999986641,218.92241440000362,None,219.35557850000623,None,220.35555931999698,None,None,220.35555931999698,None,,001,2021_Mar_17_1052,AB_pic,2020.2.10,59.99728811938894,
AB,lag4,4,4,8,0.2,0.05,0.5,0,16,16,13,,,,,,,turnstile.jpg,fireplace.jpg,alligator.jpg,swing.jpg,nunchuk.jpg,dragonfly01.jpg,shower.jpg,licenseplate.jpg,honeybee.jpg,acorn.jpg,tie02.jpg,cobra.jpg,penguin.jpg,harmonica.jpg,footballhelmet.jpg,frenchfries.jpg,jeans01.jpg,220.37220890000754,223.12241060000088,220.37220890000754,223.12241060000088,222.83913799999573,None,0,1,10,223.33879029999662,None,223.33879029999662,None,.\resources\licenseplate.jpg,226.10527499999444,None,1,226.10527499999444,None,right,0.8439690999948652,226.10527499999444,None,226.9717418000073,None,1,226.9717418000073,None,left,0.34591530000034254,226.9717418000073,None,227.33838889999606,None,228.3383113200078,None,None,228.3383113200078,None,,001,2021_Mar_17_1052,AB_pic,2020.2.10,59.99728811938894,
AB,lag5,5,4,9,0.2,0.05,0.5,0,17,17,6,,,,,,,footballhelmet.jpg,christmaslights.jpg,horseshoe.jpg,penguin.jpg,tie02.jpg,alligator.jpg,hammerheadshark.jpg,ducttape.jpg,cobra.jpg,schoolbus.jpg,cannon.jpg,acorn.jpg,nunchuk.jpg,frenchfries.jpg,fireplace.jpg,jeans01.jpg,harmonica.jpg,228.35514090000652,231.10482769999362,228.35514090000652,231.10482769999362,230.82152690000657,None,0,1,11,231.3214944000065,None,231.3214944000065,None,.\resources\cobra.jpg,234.33822269999655,None,1,234.33822269999655,None,right,1.0030767999996897,234.33822269999655,None,235.38788629999908,None,1,235.38788629999908,None,left,0.4335117000009632,235.38788629999908,None,235.83785589999752,None,236.8377677200013,None,None,236.8377677200013,None,,001,2021_Mar_17_1052,AB_pic,2020.2.10,59.99728811938894,
AB,lag2,2,3,5,0.2,0.05,0.5,0,18,18,4,,,,,,,bench01.jpg,hammerheadshark.jpg,christmaslights.jpg,cobra.jpg,honeybee.jpg,nunchuk.jpg,dragonfly01.jpg,rubikcube.jpg,mrpotatohead.jpg,footballhelmet.jpg,horseshoe.jpg,lightswitch01.jpg,saltshaker03a.jpg,swing.jpg,tie02.jpg,turnstile.jpg,shower.jpg,236.85457250000036,239.60435300000245,236.85457250000036,239.60435300000245,239.3209499000077,None,1,1,7,239.8209385999944,None,239.8209385999944,None,.\resources\honeybee.jpg,241.8375997999974,None,1,241.8375997999974,None,left,0.9276226999936625,241.8375997999974,None,242.78743339999346,None,1,242.78743339999346,None,left,0.31375410000327975,242.78743339999346,None,243.12072950000584,None,244.12064402000107,None,None,244.12064402000107,None,,001,2021_Mar_17_1052,AB_pic,2020.2.10,59.99728811938894,
AB,lag4,4,5,9,0.2,0.05,0.5,0,19,19,20,,,,,,,mouse.jpg,mrpotatohead.jpg,lightswitch01.jpg,cannon.jpg,harmonica.jpg,footballhelmet.jpg,nunchuk.jpg,schoolbus.jpg,bench01.jpg,alligator.jpg,frenchfries.jpg,dragonfly01.jpg,honeybee.jpg,fireplace.jpg,horseshoe.jpg,shower.jpg,turnstile.jpg,244.1373132000008,246.88751450000564,244.1373132000008,246.88751450000564,246.6042235000059,None,0,1,11,247.10381889999553,None,247.10381889999553,None,.\resources\bench01.jpg,250.12022130000696,None,1,250.12022130000696,None,right,0.9489561999944272,250.12022130000696,None,251.10346159999608,None,1,251.10346159999608,None,left,0.4297641000011936,251.10346159999608,None,251.55346160000772,None,252.55338202000422,None,None,252.55338202000422,None,,001,2021_Mar_17_1052,AB_pic,2020.2.10,59.99728811938894,
AB,lag5,5,4,9,0.2,0.05,0.5,0,20,20,11,,,,,,,dragonfly01.jpg,nunchuk.jpg,saltshaker03a.jpg,mrpotatohead.jpg,frenchfries.jpg,harmonica.jpg,swing.jpg,licenseplate.jpg,lightswitch01.jpg,hammerheadshark.jpg,schoolbus.jpg,honeybee.jpg,jeans01.jpg,acorn.jpg,horseshoe.jpg,cobra.jpg,showerhead01.jpg,252.57003450000775,255.32029240000702,252.57003450000775,255.32029240000702,255.03697460000694,None,1,0,11,255.53652599999623,None,255.53652599999623,None,.\resources\lightswitch01.jpg,258.55300810000335,None,1,258.55300810000335,None,left,1.1962116999930004,258.55300810000335,None,259.78638740000315,None,1,259.78638740000315,None,right,0.38702270000067074,259.78638740000315,None,260.2029457000026,None,261.2028020200058,None,None,261.2028020200058,None,,001,2021_Mar_17_1052,AB_pic,2020.2.10,59.99728811938894,
AB,lag5,5,4,9,0.2,0.05,0.5,0,21,21,23,,,,,,,swing.jpg,lightswitch01.jpg,acorn.jpg,footballhelmet.jpg,christmaslights.jpg,cannon.jpg,ducttape.jpg,turnstile.jpg,rubikcube.jpg,cobra.jpg,alligator.jpg,mouse.jpg,hammerheadshark.jpg,penguin.jpg,showerhead01.jpg,dragonfly01.jpg,licenseplate.jpg,261.2194850999949,263.96971069999563,261.2194850999949,263.96971069999563,263.6864130000031,None,1,1,11,264.1859758000064,None,264.1859758000064,None,.\resources\rubikcube.jpg,267.2024278000026,None,1,267.2024278000026,None,left,1.2907262000080664,267.2024278000026,None,268.53567450000264,None,1,268.53567450000264,None,left,0.48552079999353737,268.53567450000264,None,269.0522779000021,None,270.0522301200079,None,None,270.0522301200079,None,,001,2021_Mar_17_1052,AB_pic,2020.2.10,59.99728811938894,
AB,lag3,3,5,8,0.2,0.05,0.5,0,22,22,10,,,,,,,acorn.jpg,licenseplate.jpg,nunchuk.jpg,swing.jpg,frenchfries.jpg,rubikcube.jpg,bench01.jpg,mouse.jpg,alligator.jpg,footballhelmet.jpg,cobra.jpg,showerhead01.jpg,shower.jpg,honeybee.jpg,tie02.jpg,christmaslights.jpg,turnstile.jpg,270.0688908000011,272.8192060000001,270.0688908000011,272.8192060000001,272.5357812000002,None,0,1,10,273.0353576000052,None,273.0353576000052,None,.\resources\mouse.jpg,275.8018613000022,None,1,275.8018613000022,None,right,1.0593243000039365,275.8018613000022,None,276.90180710000277,None,1,276.90180710000277,None,left,0.41534090001368895,276.90180710000277,None,277.3350825999951,None,278.33497632000655,None,None,278.33497632000655,None,,001,2021_Mar_17_1052,AB_pic,2020.2.10,59.99728811938894,
AB,lag1,1,3,4,0.2,0.05,0.5,0,23,23,3,,,,,,,jeans01.jpg,cobra.jpg,acorn.jpg,fireplace.jpg,christmaslights.jpg,lightswitch01.jpg,hammerheadshark.jpg,cannon.jpg,mouse.jpg,alligator.jpg,turnstile.jpg,saltshaker03a.jpg,shower.jpg,dragonfly01.jpg,penguin.jpg,swing.jpg,harmonica.jpg,278.35181520000333,281.10156290000305,278.35181520000333,281.10156290000305,280.8182248999947,None,0,0,6,281.3182053000055,None,281.3182053000055,None,.\resources\fireplace.jpg,283.0847563999996,None,1,283.0847563999996,None,right,1.0884423999959836,283.0847563999996,None,284.2179862000048,None,1,284.2179862000048,None,right,0.3152221000054851,284.2179862000048,None,284.5513009999995,None,285.55119432000794,None,None,285.55119432000794,None,,001,2021_Mar_17_1052,AB_pic,2020.2.10,59.99728811938894,
AB,lag1,1,4,5,0.2,0.05,0.5,0,24,24,12,,,,,,,ducttape.jpg,rubikcube.jpg,fireplace.jpg,bench01.jpg,acorn.jpg,footballhelmet.jpg,nunchuk.jpg,schoolbus.jpg,tie02.jpg,shower.jpg,swing.jpg,showerhead01.jpg,lightswitch01.jpg,alligator.jpg,honeybee.jpg,mouse.jpg,horseshoe.jpg,285.56790490000276,288.3177143000066,285.56790490000276,288.3177143000066,288.03442179999547,None,1,0,7,288.53436299999885,None,288.53436299999885,None,.\resources\acorn.jpg,290.55087350000395,None,1,290.55087350000395,None,left,1.3343057000020053,290.55087350000395,None,291.9174658999982,None,1,291.9174658999982,None,right,0.24773840000852942,291.9174658999982,None,292.1841193,None,293.184053820002,None,None,293.184053820002,None,,001,2021_Mar_17_1052,AB_pic,2020.2.10,59.99728811938894,
AB,lag1,1,3,4,0.2,0.05,0.5,0,25,25,17,,,,,,,showerhead01.jpg,honeybee.jpg,ducttape.jpg,dragonfly01.jpg,jeans01.jpg,footballhelmet.jpg,acorn.jpg,horseshoe.jpg,rubikcube.jpg,bench01.jpg,christmaslights.jpg,penguin.jpg,mouse.jpg,frenchfries.jpg,tie02.jpg,swing.jpg,fireplace.jpg,293.20087230000354,295.9505543999985,293.20087230000354,295.9505543999985,295.6676418999996,None,1,0,6,296.16719239999657,None,296.16719239999657,None,.\resources\dragonfly01.jpg,297.9337424999976,None,1,297.9337424999976,None,left,0.9274556999880588,297.9337424999976,None,298.9002907999966,None,1,298.9002907999966,None,right,0.424919899989618,298.9002907999966,None,299.3503015000024,None,300.3502579199965,None,None,300.3502579199965,None,,001,2021_Mar_17_1052,AB_pic,2020.2.10,59.99728811938894,
AB,lag6,6,5,11,0.2,0.05,0.5,0,26,26,16,,,,,,,mrpotatohead.jpg,christmaslights.jpg,footballhelmet.jpg,schoolbus.jpg,mouse.jpg,cannon.jpg,rubikcube.jpg,licenseplate.jpg,bench01.jpg,showerhead01.jpg,turnstile.jpg,hammerheadshark.jpg,acorn.jpg,horseshoe.jpg,lightswitch01.jpg,alligator.jpg,nunchuk.jpg,300.3670693000022,303.1171153000032,300.3670693000022,303.1171153000032,302.83381270000245,None,0,1,13,303.3333616000018,None,303.3333616000018,None,.\resources\turnstile.jpg,306.8331201999972,None,1,306.8331201999972,None,right,0.8441571000003023,306.8331201999972,None,307.6997315000044,None,1,307.6997315000044,None,left,0.3055568999989191,307.6997315000044,None,308.0330438999954,None,309.0329760200082,None,None,309.0329760200082,None,,001,2021_Mar_17_1052,AB_pic,2020.2.10,59.99728811938894,
AB,lag3,3,4,7,0.2,0.05,0.5,0,27,27,14,,,,,,,penguin.jpg,licenseplate.jpg,honeybee.jpg,fireplace.jpg,christmaslights.jpg,acorn.jpg,alligator.jpg,schoolbus.jpg,mouse.jpg,jeans01.jpg,tie02.jpg,hammerheadshark.jpg,frenchfries.jpg,dragonfly01.jpg,shower.jpg,showerhead01.jpg,saltshaker03a.jpg,309.04978650000703,311.7998806999967,309.04978650000703,311.7998806999967,311.51657940000587,None,0,1,9,312.0161114999937,None,312.0161114999937,None,.\resources\alligator.jpg,314.53273849999823,None,1,314.53273849999823,None,right,0.9925031000020681,314.53273849999823,None,315.5492430000013,None,1,315.5492430000013,None,left,0.3279680000123335,315.5492430000013,None,315.8992145999946,None,316.8991285199998,None,None,316.8991285199998,None,,001,2021_Mar_17_1052,AB_pic,2020.2.10,59.99728811938894,
