trialType,cndTyp,lag,T1_loc,T2_loc,stimLen,isi,trials.thisRepN,trials.thisTrialN,trials.thisN,trials.thisIndex,img0,img1,img2,img3,img4,img5,img6,img7,img8,img9,img10,img11,img12,img13,img14,img15,img16,option1.started,option1.stopped,option2.started,option2.stopped,text_2.started,text_2.stopped,skip1,skip2,lastPresent,displayPicture.started,displayPicture.stopped,polygon_2.started,polygon_2.stopped,flipper,opt1_t1,polygon_4.started,polygon_4.stopped,cor1,option1_t1.started,option1_t1.stopped,key_resp.keys,key_resp.rt,key_resp.started,key_resp.stopped,polygon_5.started,polygon_5.stopped,cor2,option1_t2.started,option1_t2.stopped,key_resp_2.keys,key_resp_2.rt,key_resp_2.started,key_resp_2.stopped,feedbackText.started,feedbackText.stopped,text.started,text.stopped,key_resp_3.keys,key_resp_3.started,key_resp_3.stopped,participant,session,date,expName,psychopyVersion,frameRate,
AB,lag3,3,4,7,0.15,0.03,0,0,0,6,jeans01.jpg,snowshoe.jpg,fishingrod.jpg,fortunecookie.jpg,urinal.jpg,tennisracket.jpg,tire.jpg,rooster.jpg,statue.jpg,dolphin01.jpg,swing.jpg,horseshoe.jpg,bullet.jpg,dromedary.jpg,masquerademask01.jpg,worldmap.jpg,table01.jpg,6.7543713999994,9.513434499999676,6.7543713999994,9.513434499999676,9.16345949999959,None,1,0,9,9.630173799999284,None,9.630173799999284,None,False,.\resources\tire.jpg,11.446448400000008,None,False,11.446448400000008,None,right,0.9449801000000662,11.446448400000008,None,12.412980699999935,None,True,12.412980699999935,None,right,0.6583490999992136,12.412980699999935,None,13.112975399999414,None,14.112918949999221,None,None,14.112918949999221,None,,001,2021_Mar_16_1111,AB_pic,2020.2.10,59.99660419199168,
AB,lag1,1,3,4,0.15,0.03,0,1,1,20,ant.jpg,fishingrod.jpg,dromedary.jpg,snowshoe.jpg,urinal.jpg,calendar.jpg,kneepad01c.jpg,jeans01.jpg,swing.jpg,tire.jpg,makiroll.jpg,statue.jpg,tarantula.jpg,table01.jpg,parkfountain.jpg,tennisracket.jpg,ceilingfan01.jpg,14.129572499999995,16.879609900000105,14.129572499999995,16.879609900000105,16.612956299999496,None,0,0,6,17.129592899999807,None,17.129592899999807,None,False,.\resources\snowshoe.jpg,18.362856400000055,None,True,18.362856400000055,None,right,0.5404158999999709,18.362856400000055,None,18.929284099999677,None,True,18.929284099999677,None,right,1.358071700000437,18.929284099999677,None,20.312492299999576,None,21.31243424999993,None,None,21.31243424999993,None,,001,2021_Mar_16_1111,AB_pic,2020.2.10,59.99660419199168,
AB,lag3,3,5,8,0.15,0.03,0,2,2,50,chainsaw.jpg,snowshoe.jpg,tire.jpg,urinal.jpg,swing.jpg,ant.jpg,calendar.jpg,fortunecookie.jpg,grizzly.jpg,table01.jpg,worldmap.jpg,dromedary.jpg,crosscountryski.jpg,horseshoe.jpg,cat.jpg,ceilingfan01.jpg,kneepad01c.jpg,21.3124272999994,24.062687099999494,21.3124272999994,24.062687099999494,23.79602149999937,None,0,0,10,24.312683499999366,None,24.312683499999366,None,False,.\resources\fortunecookie.jpg,26.29563749999943,None,True,26.29563749999943,None,right,0.7596479000003455,26.29563749999943,None,27.09558179999931,None,True,27.09558179999931,None,right,0.67981619999955,27.09558179999931,None,27.795534699999735,None,28.79548405000005,None,None,28.79548405000005,None,,001,2021_Mar_16_1111,AB_pic,2020.2.10,59.99660419199168,
AB,lag5,5,3,8,0.15,0.03,0,3,3,120,rooster.jpg,tarantula.jpg,jeans01.jpg,cork02.jpg,ant.jpg,horse.jpg,kiwi03.jpg,lizard.jpg,masquerademask01.jpg,urinal.jpg,cat.jpg,dolphin01.jpg,fishingrod.jpg,chainsaw.jpg,crosscountryski.jpg,tennisracket.jpg,panda.jpg,28.812140799999725,31.562006599999222,28.812140799999725,31.562006599999222,31.295803199999682,None,0,0,10,31.795323699999244,None,31.795323699999244,None,False,.\resources\lizard.jpg,33.79517329999999,None,True,33.79517329999999,None,right,1.108072799999718,33.79517329999999,None,34.94509309999921,None,True,34.94509309999921,None,right,0.6061767000001055,34.94509309999921,None,35.595029899999645,None,36.59498874999954,None,None,36.59498874999954,None,,001,2021_Mar_16_1111,AB_pic,2020.2.10,59.99660419199168,
AB,lag1,1,4,5,0.15,0.03,0,4,4,136,cork02.jpg,crosscountryski.jpg,apron.jpg,foldingchair.jpg,horseshoe.jpg,cat.jpg,tennisracket.jpg,masquerademask01.jpg,lizard.jpg,statue.jpg,tortoise01.jpg,ant.jpg,nosmokingsign.jpg,jeans01.jpg,horse.jpg,fireplace.jpg,kiwi03.jpg,36.611641299999974,39.36148139999932,36.611641299999974,39.36148139999932,39.09481169999981,None,0,1,7,39.59477979999974,None,39.59477979999974,None,False,.\resources\horseshoe.jpg,41.04470349999974,None,True,41.04470349999974,None,right,0.7546865000003891,41.04470349999974,None,41.84462910000002,None,False,41.84462910000002,None,right,0.4986699999999473,41.84462910000002,None,42.37794489999942,None,43.37787204999986,None,None,43.37787204999986,None,,001,2021_Mar_16_1111,AB_pic,2020.2.10,59.99660419199168,
AB,lag1,1,4,5,0.15,0.03,0,5,5,4,parkfountain.jpg,fishingrod.jpg,jeans01.jpg,swing.jpg,dolphin01.jpg,foldingchair.jpg,snowshoe.jpg,kneepad01c.jpg,kiwi03.jpg,horse.jpg,crosscountryski.jpg,makiroll.jpg,cork02.jpg,lizard.jpg,nosmokingsign.jpg,horseshoe.jpg,chainsaw.jpg,43.39452799999981,46.14434319999964,43.39452799999981,46.14434319999964,45.86105289999978,None,0,1,7,46.37766139999985,None,46.37766139999985,None,False,.\resources\dolphin01.jpg,47.81090189999941,None,True,47.81090189999941,None,right,0.6923357000005126,47.81090189999941,None,48.54419909999979,None,False,48.54419909999979,None,right,0.43905180000001565,48.54419909999979,None,49.027537399999346,None,50.0274735500001,None,None,50.0274735500001,None,,001,2021_Mar_16_1111,AB_pic,2020.2.10,59.99660419199168,
AB,lag5,5,5,10,0.15,0.03,0,6,6,145,swing.jpg,tortoise01.jpg,foldingchair.jpg,cork02.jpg,table01.jpg,dromedary.jpg,ceilingfan01.jpg,ant.jpg,horseshoe.jpg,snowshoe.jpg,dormer.jpg,dolphin01.jpg,statue.jpg,kneepad01c.jpg,lizard.jpg,masquerademask01.jpg,urinal.jpg,50.044115199999396,52.793907399999625,50.044115199999396,52.793907399999625,52.5105896999994,None,0,0,12,53.01058469999953,None,53.01058469999953,None,False,.\resources\snowshoe.jpg,55.36040520000006,None,True,55.36040520000006,None,right,0.49495329999990645,55.36040520000006,None,55.89370090000011,None,True,55.89370090000011,None,right,0.9136128000000099,55.89370090000011,None,56.84363159999975,None,57.84356224999956,None,None,57.84356224999956,None,,001,2021_Mar_16_1111,AB_pic,2020.2.10,59.99660419199168,
AB,lag6,6,3,9,0.15,0.03,0,7,7,58,lizard.jpg,ceilingfan01.jpg,jeans01.jpg,horseshoe.jpg,swing.jpg,fishingrod.jpg,fireplace.jpg,cigar.jpg,panda.jpg,crosscountryski.jpg,dormer.jpg,apron.jpg,parkfountain.jpg,nosmokingsign.jpg,grizzly.jpg,snowshoe.jpg,makiroll.jpg,57.8602364999997,60.6100521999997,57.8602364999997,60.6100521999997,60.326744099999814,None,0,0,11,60.82670499999949,None,60.82670499999949,None,False,.\resources\panda.jpg,62.99326639999981,None,False,62.99326639999981,None,down,98.66193209999983,62.99326639999981,None,161.7033535999999,None,False,161.7033535999999,None,down,1.2719213999998829,161.7033535999999,None,163.01992169999994,None,164.01987874999978,None,None,164.01987874999978,None,,001,2021_Mar_16_1111,AB_pic,2020.2.10,59.99660419199168,
AB,lag7,7,4,11,0.15,0.03,0,8,8,156,calendar.jpg,apron.jpg,ant.jpg,ceilingfan01.jpg,nosmokingsign.jpg,tarantula.jpg,tire.jpg,horseshoe.jpg,horse.jpg,kiwi03.jpg,parkfountain.jpg,lizard.jpg,urinal.jpg,cork02.jpg,fireplace.jpg,fortunecookie.jpg,tortoise01.jpg,164.03654019999976,166.78636579999966,164.03654019999976,166.78636579999966,166.50304469999992,None,0,0,13,167.01975539999967,None,167.01975539999967,None,False,.\resources\parkfountain.jpg,169.53623319999951,None,True,169.53623319999951,None,right,1.2711059000002933,169.53623319999951,None,170.8527997000001,None,True,170.8527997000001,None,right,0.5543964999997115,170.8527997000001,None,171.45271409999987,None,172.4526470499999,None,None,172.4526470499999,None,,001,2021_Mar_16_1111,AB_pic,2020.2.10,59.99660419199168,
AB,lag5,5,5,10,0.15,0.03,0,9,9,17,horseshoe.jpg,cork02.jpg,swing.jpg,urinal.jpg,apron.jpg,ceilingfan01.jpg,kiwi03.jpg,fireplace.jpg,fishingrod.jpg,cigar.jpg,tarantula.jpg,fortunecookie.jpg,chainsaw.jpg,statue.jpg,foldingchair.jpg,masquerademask01.jpg,tire.jpg,172.46932229999948,175.21918199999982,172.46932229999948,175.21918199999982,174.95251949999965,None,0,0,12,175.4524576999993,None,175.4524576999993,None,False,.\resources\cigar.jpg,177.80227389999982,None,True,177.80227389999982,None,right,0.7409234000006109,177.80227389999982,None,178.58559629999945,None,True,178.58559629999945,None,right,0.4775811999998041,178.58559629999945,None,179.1022052999997,None,180.1021467499999,None,None,180.1021467499999,None,,001,2021_Mar_16_1111,AB_pic,2020.2.10,59.99660419199168,
AB,lag1,1,4,5,0.15,0.03,0,10,10,130,tortoise01.jpg,kiwi03.jpg,makiroll.jpg,foldingchair.jpg,statue.jpg,fishingrod.jpg,nosmokingsign.jpg,fireplace.jpg,parkfountain.jpg,apron.jpg,horseshoe.jpg,dormer.jpg,fortunecookie.jpg,grizzly.jpg,horse.jpg,cat.jpg,kneepad01c.jpg,180.11881749999975,182.8686528999997,180.11881749999975,182.8686528999997,182.60198129999935,None,0,0,7,183.10195029999977,None,183.10195029999977,None,False,.\resources\statue.jpg,184.55183789999955,None,True,184.55183789999955,None,right,0.8473948999999266,184.55183789999955,None,185.43514359999972,None,True,185.43514359999972,None,right,0.4681484000002456,185.43514359999972,None,185.93509509999967,None,186.93504854999938,None,None,186.93504854999938,None,,001,2021_Mar_16_1111,AB_pic,2020.2.10,59.99660419199168,
AB,lag5,5,3,8,0.15,0.03,0,11,11,1,tarantula.jpg,nosmokingsign.jpg,ceilingfan01.jpg,makiroll.jpg,tortoise01.jpg,horse.jpg,ant.jpg,apron.jpg,jeans01.jpg,grizzly.jpg,chainsaw.jpg,cork02.jpg,urinal.jpg,fireplace.jpg,dolphin01.jpg,cat.jpg,foldingchair.jpg,186.95170169999983,189.70151110000006,186.95170169999983,189.70151110000006,189.4348540000001,None,0,0,10,189.93483379999998,None,189.93483379999998,None,False,.\resources\apron.jpg,191.93469939999977,None,True,191.93469939999977,None,right,1.7685470999995232,191.93469939999977,None,193.7512483999999,None,True,193.7512483999999,None,right,0.5759052000003066,193.7512483999999,None,194.3512708999997,None,195.35113304999996,None,None,195.35113304999996,None,,001,2021_Mar_16_1111,AB_pic,2020.2.10,59.99660419199168,
AB,lag5,5,4,9,0.15,0.03,0,12,12,134,tarantula.jpg,rooster.jpg,swing.jpg,tortoise01.jpg,snowshoe.jpg,horseshoe.jpg,kiwi03.jpg,dromedary.jpg,table01.jpg,fireplace.jpg,lizard.jpg,ant.jpg,calendar.jpg,urinal.jpg,fortunecookie.jpg,apron.jpg,bullet.jpg,195.36781559999963,198.11767969999983,195.36781559999963,198.11767969999983,197.8509715,None,0,0,11,198.35094969999955,None,198.35094969999955,None,False,.\resources\table01.jpg,200.51746869999988,None,True,200.51746869999988,None,right,0.5217971000001853,200.51746869999988,None,201.0840935999995,None,True,201.0840935999995,None,right,0.5231182999996236,201.0840935999995,None,201.63409749999937,None,202.63402084999998,None,None,202.63402084999998,None,,001,2021_Mar_16_1111,AB_pic,2020.2.10,59.99660419199168,
AB,lag6,6,3,9,0.15,0.03,0,13,13,76,cork02.jpg,fireplace.jpg,masquerademask01.jpg,table01.jpg,worldmap.jpg,tortoise01.jpg,urinal.jpg,dolphin01.jpg,dromedary.jpg,rooster.jpg,kneepad01c.jpg,crosscountryski.jpg,foldingchair.jpg,ceilingfan01.jpg,chainsaw.jpg,panda.jpg,snowshoe.jpg,202.6506720999996,205.40049259999978,202.6506720999996,205.40049259999978,205.1338238999997,None,0,0,11,205.63384059999953,None,205.63384059999953,None,False,.\resources\dromedary.jpg,207.80031710000003,None,True,207.80031710000003,None,right,1.294912000000295,207.80031710000003,None,209.13354069999968,None,True,209.13354069999968,None,right,0.4737822999995842,209.13354069999968,None,209.63354009999966,None,210.63342844999934,None,None,210.63342844999934,None,,001,2021_Mar_16_1111,AB_pic,2020.2.10,59.99660419199168,
AB,lag5,5,5,10,0.15,0.03,0,14,14,56,tortoise01.jpg,horseshoe.jpg,grizzly.jpg,parkfountain.jpg,ceilingfan01.jpg,cigar.jpg,tennisracket.jpg,table01.jpg,ant.jpg,fireplace.jpg,rooster.jpg,snowshoe.jpg,kiwi03.jpg,bullet.jpg,lizard.jpg,panda.jpg,fishingrod.jpg,210.65010039999925,213.39997179999955,210.65010039999925,213.39997179999955,213.13334339999983,None,1,0,12,213.64995849999923,None,213.64995849999923,None,False,.\resources\fireplace.jpg,215.98313379999945,None,False,215.98313379999945,None,right,0.4159803999991709,215.98313379999945,None,216.43308759999945,None,True,216.43308759999945,None,right,0.5660269999998491,216.43308759999945,None,217.03303959999994,None,218.0329647499997,None,None,218.0329647499997,None,,001,2021_Mar_16_1111,AB_pic,2020.2.10,59.99660419199168,
AB,lag4,4,3,7,0.15,0.03,0,15,15,122,dormer.jpg,tarantula.jpg,rooster.jpg,fireplace.jpg,kiwi03.jpg,foldingchair.jpg,chainsaw.jpg,fortunecookie.jpg,grizzly.jpg,horseshoe.jpg,jeans01.jpg,bullet.jpg,parkfountain.jpg,nosmokingsign.jpg,masquerademask01.jpg,dolphin01.jpg,table01.jpg,218.0496048999994,220.79949679999936,218.0496048999994,220.79949679999936,220.53283089999968,None,0,0,9,221.03277869999965,None,221.03277869999965,None,False,.\resources\chainsaw.jpg,222.84932209999988,None,True,222.84932209999988,None,right,0.4378015000002051,222.84932209999988,None,223.33262789999935,None,True,223.33262789999935,None,right,0.5386189000000741,223.33262789999935,None,223.9159178,None,224.91583924999978,None,None,224.91583924999978,None,,001,2021_Mar_16_1111,AB_pic,2020.2.10,59.99660419199168,
AB,lag4,4,3,7,0.15,0.03,0,16,16,3,foldingchair.jpg,makiroll.jpg,cork02.jpg,statue.jpg,panda.jpg,fishingrod.jpg,cat.jpg,kiwi03.jpg,kneepad01c.jpg,ceilingfan01.jpg,snowshoe.jpg,dolphin01.jpg,rooster.jpg,tire.jpg,crosscountryski.jpg,parkfountain.jpg,urinal.jpg,224.93251579999924,227.6823715999999,224.93251579999924,227.6823715999999,227.39902139999958,None,0,0,9,227.89898679999988,None,227.89898679999988,None,False,.\resources\cat.jpg,229.71553669999957,None,True,229.71553669999957,None,right,0.7956326999992598,229.71553669999957,None,230.54881579999983,None,True,230.54881579999983,None,right,0.43443590000060794,230.54881579999983,None,230.99881809999988,None,231.9987506499996,None,None,231.9987506499996,None,,001,2021_Mar_16_1111,AB_pic,2020.2.10,59.99660419199168,
AB,lag3,3,3,6,0.15,0.03,0,17,17,121,kneepad01c.jpg,cigar.jpg,cork02.jpg,fortunecookie.jpg,urinal.jpg,kiwi03.jpg,statue.jpg,lizard.jpg,dromedary.jpg,ant.jpg,tennisracket.jpg,worldmap.jpg,crosscountryski.jpg,fishingrod.jpg,tire.jpg,panda.jpg,ceilingfan01.jpg,232.01539909999974,234.76520189999974,232.01539909999974,234.76520189999974,234.4819192999994,None,0,0,8,234.9818781999993,None,234.9818781999993,None,False,.\resources\kiwi03.jpg,236.61507970000002,None,True,236.61507970000002,None,right,0.9920136999999158,236.61507970000002,None,237.64834209999935,None,True,237.64834209999935,None,right,0.35086039999987406,237.64834209999935,None,238.0150055999993,None,239.01493174999942,None,None,239.01493174999942,None,,001,2021_Mar_16_1111,AB_pic,2020.2.10,59.99660419199168,
AB,lag1,1,3,4,0.15,0.03,0,18,18,155,masquerademask01.jpg,tortoise01.jpg,cigar.jpg,bullet.jpg,tire.jpg,jeans01.jpg,kiwi03.jpg,tennisracket.jpg,horseshoe.jpg,snowshoe.jpg,cork02.jpg,rooster.jpg,ant.jpg,cat.jpg,calendar.jpg,dolphin01.jpg,table01.jpg,239.03158449999955,241.78140369999983,239.03158449999955,241.78140369999983,241.51478119999956,None,0,0,6,242.01474439999947,None,242.01474439999947,None,False,.\resources\bullet.jpg,243.28130449999935,None,True,243.28130449999935,None,right,0.7977971000000252,243.28130449999935,None,244.11458289999973,None,True,244.11458289999973,None,right,0.3805001999999149,244.11458289999973,None,244.51458490000005,None,245.5145470499996,None,None,245.5145470499996,None,,001,2021_Mar_16_1111,AB_pic,2020.2.10,59.99660419199168,
AB,lag5,5,5,10,0.15,0.03,0,19,19,81,fortunecookie.jpg,dolphin01.jpg,dromedary.jpg,cat.jpg,ceilingfan01.jpg,dormer.jpg,bullet.jpg,crosscountryski.jpg,fireplace.jpg,chainsaw.jpg,nosmokingsign.jpg,rooster.jpg,worldmap.jpg,grizzly.jpg,fishingrod.jpg,foldingchair.jpg,panda.jpg,245.5311697999996,248.2809731999996,245.5311697999996,248.2809731999996,247.99770219999937,None,0,0,12,248.5143148999996,None,248.5143148999996,None,False,.\resources\chainsaw.jpg,250.84746949999953,None,True,250.84746949999953,None,right,0.3676156000001356,250.84746949999953,None,251.24746099999993,None,True,251.24746099999993,None,right,0.43961729999955423,251.24746099999993,None,251.71411790000002,None,252.71403984999998,None,None,252.71403984999998,None,,001,2021_Mar_16_1111,AB_pic,2020.2.10,59.99660419199168,
,,,,,,,,,,,kiwi03.jpg,table01.jpg,cigar.jpg,tarantula.jpg,horseshoe.jpg,dolphin01.jpg,dormer.jpg,fireplace.jpg,dromedary.jpg,jeans01.jpg,calendar.jpg,foldingchair.jpg,makiroll.jpg,fishingrod.jpg,nosmokingsign.jpg,ant.jpg,tire.jpg,252.73069579999992,255.48052049999933,252.73069579999992,255.48052049999933,255.1972221999995,None,0,0,,255.69714909999948,None,255.69714909999948,None,False,.\resources\horseshoe.jpg,,,,,,,,,,,,,,,,,,,,,,,,,,,,,,,,
