trialType,cndTyp,lag,T1_loc,T2_loc,stimLen,isi,skipProb,phase,trials.thisRepN,trials.thisTrialN,trials.thisN,trials.thisIndex,trials2.thisRepN,trials2.thisTrialN,trials2.thisN,trials2.thisIndex,text_3.started,text_3.stopped,key_resp_4.keys,key_resp_4.rt,key_resp_4.started,key_resp_4.stopped,img0,img1,img2,img3,img4,img5,img6,img7,img8,img9,img10,img11,img12,img13,img14,img15,img16,option1.started,option1.stopped,text_2.started,text_2.stopped,skip1,skip2,lastPresent,displayPicture.started,displayPicture.stopped,polygon_2.started,polygon_2.stopped,opt1_t1,polygon_4.started,polygon_4.stopped,cor1,option1_t1.started,option1_t1.stopped,key_resp.keys,key_resp.rt,key_resp.started,key_resp.stopped,polygon_5.started,polygon_5.stopped,text_6.started,text_6.stopped,cor2,key_resp_2.keys,key_resp_2.rt,key_resp_2.started,key_resp_2.stopped,feedbackText.started,feedbackText.stopped,text.started,text.stopped,key_resp_3.keys,key_resp_3.started,key_resp_3.stopped,text_4.started,text_4.stopped,key_resp_7.keys,key_resp_7.rt,key_resp_7.started,key_resp_7.stopped,option1_3.started,option1_3.stopped,text_7.started,text_7.stopped,curStimTim,displayPicture_4.started,displayPicture_4.stopped,polygon_16.started,polygon_16.stopped,polygon_7.started,polygon_7.stopped,option1_t1_2.started,option1_t1_2.stopped,key_resp_6.keys,key_resp_6.rt,key_resp_6.started,key_resp_6.stopped,polygon_17.started,polygon_17.stopped,text_8.started,text_8.stopped,key_resp_8.keys,key_resp_8.rt,key_resp_8.started,key_resp_8.stopped,B0,B1,participant,session,date,expName,psychopyVersion,frameRate,
,,,,,,,,,,,,,,,,,6.703237399982754,None,space,15.01793660002295,6.703237399982754,None,,,,,,,,,,,,,,,,,,,,,,,,,,,,,,,,,,,,,,,,,,,,,,,,,,,,,,,,,,,,,,,,,,,,,,,,,,,,,,,,,,,,,,,,,001,2021_Mar_24_1027,AB_pic_singleT2,2020.2.10,59.968540501467544,
AB,lag2,2,3,5,0.2,0.05,0.5,,0,0,0,4,,,,,,,,,,,mailbox02.jpg,trumpet.jpg,dormer.jpg,toolbox02.jpg,fingerprint.jpg,redfox.jpg,lip.jpg,dromedary.jpg,dolphin01.jpg,jellyfish.jpg,tire.jpg,lollipop04.jpg,tie02.jpg,toad.jpg,stool01.jpg,horseshoe.jpg,ear.jpg,21.809991499991156,24.55993469999521,24.293158099986613,None,1,1,7,24.793246599991107,None,24.793246599991107,None,.\resources\fingerprint.jpg,26.792832399980398,None,1,26.792832399980398,None,left,1.2162070000194944,26.792832399980398,None,28.042571800004225,None,28.042571800004225,None,1,left,0.2064912999921944,28.042571800004225,None,28.292697600001702,None,29.292201189979096,None,None,29.292201189979096,None,,,,,,,,,,,,,,,,,,,,,,,,,,,,,,,,,,,001,2021_Mar_24_1027,AB_pic_singleT2,2020.2.10,59.968540501467544,
AB,lag2,2,5,7,0.2,0.05,0.5,,0,1,1,9,,,,,,,,,,,jellybean.jpg,dartboard.jpg,bumpercar.jpg,bat.jpg,flag.jpg,football.jpg,skippingrope.jpg,tortoise01.jpg,horseshoe.jpg,waterfountain02.jpg,barrel01.jpg,tennisracket.jpg,moon.jpg,horse.jpg,lily.jpg,chefshat.jpg,jellyfish.jpg,29.30915789998835,32.05938339998829,31.792721099976916,None,1,0,9,32.292287199990824,None,32.292287199990824,None,.\resources\skippingrope.jpg,34.80883139997604,None,1,34.80883139997604,None,left,0.6402629000076558,34.80883139997604,None,35.47538849999546,None,35.47538849999546,None,1,right,0.4217857999901753,35.47538849999546,None,35.92535569999018,None,36.9249916899862,None,None,36.9249916899862,None,,,,,,,,,,,,,,,,,,,,,,,,,,,,,,,,,,,001,2021_Mar_24_1027,AB_pic_singleT2,2020.2.10,59.968540501467544,
AB,lag7,7,5,12,0.2,0.05,0.5,,0,2,2,7,,,,,,,,,,,englishcucumber.jpg,noparkingsign.jpg,bull.jpg,kite.jpg,bullet.jpg,penguin.jpg,christmaslights.jpg,waterfall.jpg,swordfish.jpg,statue.jpg,dolphin01.jpg,chefshat.jpg,tiger02.jpg,shower.jpg,escalator.jpg,birdnest.jpg,greywolf.jpg,36.958622499980265,39.70880409999518,39.4421994999866,None,1,1,14,39.94216299999971,None,39.94216299999971,None,.\resources\chefshat.jpg,43.70816889998969,None,1,43.70816889998969,None,left,0.6609226000146009,43.70816889998969,None,44.39150779999909,None,44.39150779999909,None,1,left,0.18555940000806004,44.39150779999909,None,44.60817229998065,None,45.60779818998708,None,None,45.60779818998708,None,,,,,,,,,,,,,,,,,,,,,,,,,,,,,,,,,,,001,2021_Mar_24_1027,AB_pic_singleT2,2020.2.10,59.968540501467544,
AB,lag6,6,5,11,0.2,0.05,0.5,,0,3,3,8,,,,,,,,,,,birdfeeder.jpg,pooltable.jpg,mrpotatohead.jpg,ostrich.jpg,englishcucumber.jpg,icecube02.jpg,nosmokingsign.jpg,birthdaycandle.jpg,sledgehammer.jpg,key07.jpg,eyepatch.jpg,uprightpiano01.jpg,dalmatian.jpg,swing.jpg,dartboard.jpg,hulahoop.jpg,saltshaker03a.jpg,45.624858099996345,48.374938900000416,48.09165970000322,None,0,1,13,48.5911885999958,None,48.5911885999958,None,.\resources\eyepatch.jpg,52.10764189998736,None,1,52.10764189998736,None,right,0.885454999981448,52.10764189998736,None,53.02423529999214,None,53.02423529999214,None,1,left,0.22496170000522397,53.02423529999214,None,53.27419139997801,None,54.27386708998529,None,None,54.27386708998529,None,,,,,,,,,,,,,,,,,,,,,,,,,,,,,,,,,,,001,2021_Mar_24_1027,AB_pic_singleT2,2020.2.10,59.968540501467544,
AB,lag3,3,3,6,0.2,0.05,0.5,,0,4,4,5,,,,,,,,,,,elbow.jpg,key07.jpg,stool01.jpg,pingpongtable.jpg,bluejay.jpg,saxophone.jpg,leafblower01.jpg,snowshovel.jpg,saltshaker03a.jpg,kiwi03.jpg,butterfly.jpg,safe.jpg,bull.jpg,zebra.jpg,granolabar01.jpg,toad.jpg,ladder.jpg,54.29085849999683,57.041069300001254,56.774388799996814,None,1,1,8,57.27392019997933,None,57.27392019997933,None,.\resources\saxophone.jpg,59.540486099984264,None,1,59.540486099984264,None,left,0.7726433000061661,59.540486099984264,None,60.34040069999173,None,60.34040069999173,None,1,left,0.21275770000647753,60.34040069999173,None,60.57373639999423,None,61.57336688997748,None,None,61.57336688997748,None,,,,,,,,,,,,,,,,,,,,,,,,,,,,,,,,,,,001,2021_Mar_24_1027,AB_pic_singleT2,2020.2.10,59.968540501467544,
AB,lag3,3,5,8,0.2,0.05,0.5,,0,5,5,10,,,,,,,,,,,ostrich.jpg,lawnmower.jpg,stubbywrench01a.jpg,snowshovel.jpg,pokerchips.jpg,giraffe.jpg,icecube02.jpg,car.jpg,airhockeytable.jpg,duck01.jpg,showerhead01.jpg,steeringwheel.jpg,cow.jpg,ladybug03.jpg,hand01b.jpg,golfball.jpg,helicopter.jpg,61.59048009998514,64.34056329997838,64.07393869999214,None,0,1,10,64.57347449997906,None,64.57347449997906,None,.\resources\car.jpg,67.3399562999839,None,1,67.3399562999839,None,right,1.4051276000100188,67.3399562999839,None,68.77320369999507,None,68.77320369999507,None,1,left,0.21192219998920336,68.77320369999507,None,69.00650289998157,None,70.00614788998791,None,None,70.00614788998791,None,,,,,,,,,,,,,,,,,,,,,,,,,,,,,,,,,,,001,2021_Mar_24_1027,AB_pic_singleT2,2020.2.10,59.968540501467544,
AB,lag4,4,4,8,0.2,0.05,0.5,,0,6,6,13,,,,,,,,,,,leafblower01.jpg,well.jpg,cupcake.jpg,key07.jpg,eye.jpg,eyepatch.jpg,lizard.jpg,guitarcase.jpg,tarantula.jpg,flamingo.jpg,cow.jpg,parachute.jpg,spicerack.jpg,lollipop04.jpg,safe.jpg,parkfountain.jpg,corn02.jpg,70.00647140000365,72.75633019997622,72.48966939997626,None,0,1,10,72.98965569998836,None,72.98965569998836,None,.\resources\guitarcase.jpg,75.75613120000344,None,1,75.75613120000344,None,right,4.884957700007362,75.75613120000344,None,80.6724353999889,None,80.6724353999889,None,1,left,0.24062739999499172,80.6724353999889,None,80.93909519998124,None,81.93873588998395,None,None,81.93873588998395,None,,,,,,,,,,,,,,,,,,,,,,,,,,,,,,,,,,,001,2021_Mar_24_1027,AB_pic_singleT2,2020.2.10,59.968540501467544,
AB,lag5,5,4,9,0.2,0.05,0.5,,0,7,7,11,,,,,,,,,,,lip.jpg,telescope.jpg,bow.jpg,showerhead01.jpg,barrel01.jpg,sledgehammer.jpg,floorlamp.jpg,candycane01a.jpg,horseshoe.jpg,callbell.jpg,tire.jpg,fingerprint.jpg,duck01.jpg,skateboard.jpg,dragonfly01.jpg,turnstile.jpg,tricycle.jpg,81.93897210000432,84.68924219999462,84.42258169999695,None,0,0,11,84.92214909999166,None,84.92214909999166,None,.\resources\horseshoe.jpg,87.93863940000301,None,1,87.93863940000301,None,right,0.3904793999972753,87.93863940000301,None,88.35525120000239,None,88.35525120000239,None,1,right,0.18186049998621456,88.35525120000239,None,88.55524249997688,None,89.55489518998365,None,None,89.55489518998365,None,,,,,,,,,,,,,,,,,,,,,,,,,,,,,,,,,,,001,2021_Mar_24_1027,AB_pic_singleT2,2020.2.10,59.968540501467544,
AB,lag1,1,3,4,0.2,0.05,0.5,,0,8,8,3,,,,,,,,,,,parkingmeter.jpg,brownsugar.jpg,hammerheadshark.jpg,bat.jpg,footballhelmet.jpg,butterfly.jpg,dalmatian.jpg,flag.jpg,funnel.jpg,kneepad01c.jpg,handcuffs.jpg,greywolf.jpg,fridge.jpg,mrpotatohead.jpg,nose.jpg,dolphin01.jpg,slug.jpg,89.57187630000408,92.32204909998109,92.05541049997555,None,1,0,6,92.55497559998184,None,92.55497559998184,None,.\resources\bat.jpg,94.32154289999744,None,1,94.32154289999744,None,left,0.8635536000074353,94.32154289999744,None,95.20480149998912,None,95.20480149998912,None,1,right,0.14036469999700785,95.20480149998912,None,95.37145409997902,None,96.37113408998994,None,None,96.37113408998994,None,,,,,,,,,,,,,,,,,,,,,,,,,,,,,,,,,,,001,2021_Mar_24_1027,AB_pic_singleT2,2020.2.10,59.968540501467544,
AB,lag1,1,4,5,0.2,0.05,0.5,,0,9,9,12,,,,,,,,,,,popcorn.jpg,hockeystick.jpg,mattress.jpg,cymbal.jpg,beaver.jpg,floorlamp.jpg,seagull.jpg,moon.jpg,cat.jpg,bench01.jpg,horseshoe.jpg,harmonica.jpg,athleticsock.jpg,handcuffs.jpg,rooster.jpg,greywolf.jpg,jellyfish.jpg,96.3880680000002,99.13830089999828,98.8550195999851,None,1,1,7,99.37159159997827,None,99.37159159997827,None,.\resources\beaver.jpg,101.37107880000258,None,1,101.37107880000258,None,left,0.8940206000115722,101.37107880000258,None,102.2876720999775,None,102.2876720999775,None,1,left,0.1853947000054177,102.2876720999775,None,102.50432439998258,None,103.50393128998985,None,None,103.50393128998985,None,,,,,,,,,,,,,,,,,,,,,,,,,,,,,,,,,,,001,2021_Mar_24_1027,AB_pic_singleT2,2020.2.10,59.968540501467544,
AB,lag4,4,3,7,0.2,0.05,0.5,,0,10,10,1,,,,,,,,,,,leafblower01.jpg,basketball01.jpg,lightswitch01.jpg,callbell.jpg,spiderweb.jpg,cloud.jpg,coffeemaker.jpg,eyepatch.jpg,rubikcube.jpg,parrot01.jpg,birdhouse.jpg,granolabar01.jpg,nunchuk.jpg,rooster.jpg,musicsheet.jpg,funnel.jpg,parkfountain.jpg,103.52094409998972,106.27115210000193,105.98783790000016,None,0,0,9,106.4874121999892,None,106.4874121999892,None,.\resources\coffeemaker.jpg,109.00390670000343,None,1,109.00390670000343,None,right,0.32521329997689463,109.00390670000343,None,109.35385079999105,None,109.35385079999105,None,1,right,0.1912640999944415,109.35385079999105,None,109.57055079998099,None,110.57018728998082,None,None,110.57018728998082,None,,,,,,,,,,,,,,,,,,,,,,,,,,,,,,,,,,,001,2021_Mar_24_1027,AB_pic_singleT2,2020.2.10,59.968540501467544,
AB,lag7,7,4,11,0.2,0.05,0.5,,0,11,11,2,,,,,,,,,,,mummy.jpg,ladder.jpg,englishcucumber.jpg,bow.jpg,footballhelmet.jpg,marble.jpg,elbow.jpg,redfox.jpg,sheep.jpg,donut.jpg,armadillo.jpg,birdfeeder.jpg,dreamcatcher.jpg,squirrel.jpg,dalmatian.jpg,boat.jpg,mailbox02.jpg,110.57049899999402,113.32067629997618,113.05409069999587,None,0,0,13,113.57069860000047,None,113.57069860000047,None,.\resources\armadillo.jpg,117.05337519999011,None,1,117.05337519999011,None,right,1.0677436999976635,117.05337519999011,None,118.13667879998684,None,118.13667879998684,None,1,right,0.1924163999792654,118.13667879998684,None,118.35331099998439,None,119.35293968998303,None,None,119.35293968998303,None,,,,,,,,,,,,,,,,,,,,,,,,,,,,,,,,,,,001,2021_Mar_24_1027,AB_pic_singleT2,2020.2.10,59.968540501467544,
AB,lag6,6,5,11,0.2,0.05,0.5,,0,12,12,0,,,,,,,,,,,tricycle.jpg,alligator.jpg,jeans01.jpg,flag.jpg,volleyball.jpg,microwave.jpg,zipper.jpg,surfboard.jpg,apron.jpg,masquerademask01.jpg,bullet.jpg,pooltable.jpg,sledgehammer.jpg,ear.jpg,rose.jpg,fishskeleton.jpg,cigar.jpg,119.36993519999669,122.1201128999819,121.85355659999186,None,1,0,13,122.37014569999883,None,122.37014569999883,None,.\resources\bullet.jpg,125.86966669998947,None,1,125.86966669998947,None,left,0.6194104999885894,125.86966669998947,None,126.51945069999783,None,126.51945069999783,None,1,right,0.13769060000777245,126.51945069999783,None,126.68611379998038,None,127.68574949000322,None,None,127.68574949000322,None,,,,,,,,,,,,,,,,,,,,,,,,,,,,,,,,,,,001,2021_Mar_24_1027,AB_pic_singleT2,2020.2.10,59.968540501467544,
AB,lag5,5,4,9,0.2,0.05,0.5,,0,13,13,6,,,,,,,,,,,urinal.jpg,snowshovel.jpg,frenchfries.jpg,pigeon.jpg,toad.jpg,coffeemaker.jpg,birthdaycandle.jpg,jeans01.jpg,grizzly.jpg,saltshaker03a.jpg,bull.jpg,greywolf.jpg,bowtie.jpg,accordion01.jpg,dartboard.jpg,pirateflag.jpg,bat.jpg,127.70286119999946,130.45293839997612,130.1696316000016,None,0,0,11,130.6863017999858,None,130.6863017999858,None,.\resources\grizzly.jpg,133.68580909998855,None,1,133.68580909998855,None,right,0.8832801000098698,133.68580909998855,None,134.58554770000046,None,134.58554770000046,None,1,right,0.23148919999948703,134.58554770000046,None,134.83556549999048,None,135.83521248998295,None,None,135.83521248998295,None,,,,,,,,,,,,,,,,,,,,,,,,,,,,,,,,,,,001,2021_Mar_24_1027,AB_pic_singleT2,2020.2.10,59.968540501467544,
,,,,,,,,,,,,,,,,,,,,,,,,,,,,,,,,,,,,,,,,,,,,,,,,,,,,,,,,,,,,,,,,,,,,,,,,,,,,,135.8523551999824,None,space,2.5550749999820255,135.8523551999824,None,,,,,,,,,,,,,,,,,,,,,,,,,,,,,001,2021_Mar_24_1027,AB_pic_singleT2,2020.2.10,59.968540501467544,
AB,lag6,6,5,11,0.2,0.05,0.5,ramp,,,,,0,0,0,0,,,,,,,frisbee.jpg,bed.jpg,schoolbus.jpg,chainsaw.jpg,seagull.jpg,coffeemaker.jpg,skippingrope.jpg,triangle.jpg,seal.jpg,dromedary.jpg,tire.jpg,toad.jpg,bridge.jpg,chefshat.jpg,foldingchair.jpg,dolphin01.jpg,acorn.jpg,,,,,1,1,13,,,,,.\resources\tire.jpg,,,1,,,,,,,,,,,1,,,,,,,145.6845161899837,None,None,145.6845161899837,None,,,,,,,138.4686182999867,141.2187999000016,140.95211839998956,None,0.2,141.46876519999932,None,141.46876519999932,None,144.98497049999423,None,144.98497049999423,None,left,0.41607989999465644,144.98497049999423,None,145.41815209999913,None,145.41815209999913,None,left,0.24688330001663417,145.41815209999913,None,,,,001,2021_Mar_24_1027,AB_pic_singleT2,2020.2.10,59.968540501467544,
AB,lag4,4,4,8,0.19066666667,0.048,0.48,ramp,,,,,0,1,1,1,,,,,,,frisbee.jpg,cloud.jpg,sandcastle.jpg,calendar.jpg,ladder.jpg,tortoise01.jpg,panda.jpg,football.jpg,foot.jpg,fireplace.jpg,doghouse.jpg,bowlingpin.jpg,arrow02.jpg,footballhelmet.jpg,kneepad01c.jpg,snowshovel.jpg,cymbal.jpg,,,,,0,0,10,,,,,.\resources\football.jpg,,,1,,,,,,,,,,,1,,,,,,,151.93414848997782,None,None,151.93414848997782,None,,,,,,,145.70161329998518,148.45168549998198,148.18465189999552,None,0.19066666667,148.68497889998253,None,148.68497889998253,None,151.33442069997545,None,151.33442069997545,None,right,0.33871159999398515,151.33442069997545,None,151.73463289998472,None,151.73463289998472,None,right,0.17046360002132133,151.73463289998472,None,0.46465373638409574,1.9480249916885222,,001,2021_Mar_24_1027,AB_pic_singleT2,2020.2.10,59.968540501467544,
AB,lag7,7,4,11,0.18133333334,0.046,0.45999999999999996,ramp,,,,,0,2,2,2,,,,,,,spiderweb.jpg,coffeemaker.jpg,accordion01.jpg,witchhat.jpg,skippingrope.jpg,escalator.jpg,acorn.jpg,hand01b.jpg,kangaroo.jpg,ant.jpg,redfox.jpg,lollipop04.jpg,humanskeleton.jpg,noparkingsign.jpg,rubikcube.jpg,ceilingfan01.jpg,uprightpiano01.jpg,,,,,0,1,13,,,,,.\resources\redfox.jpg,,,1,,,,,,,,,,,1,,,,,,,159.00056258997938,None,None,159.00056258997938,None,,,,,,,151.95104179999908,154.70122249997803,154.43459079999593,None,0.18133333334,154.93464500000118,None,154.93464500000118,None,158.15073019999545,None,158.15073019999545,None,right,0.5943529000214767,158.15073019999545,None,158.78395519999322,None,158.78395519999322,None,left,0.19312640000134706,158.78395519999322,None,0.2576987270540908,3.6324778138972564,,001,2021_Mar_24_1027,AB_pic_singleT2,2020.2.10,59.968540501467544,
AB,lag5,5,5,10,0.17200000001000001,0.044,0.43999999999999995,ramp,,,,,0,3,3,3,,,,,,,masquerademask01.jpg,rubikcube.jpg,icecube02.jpg,church.jpg,safe.jpg,cloud.jpg,treadmill.jpg,sheep.jpg,microphone01.jpg,statue.jpg,makiroll.jpg,tennisracket.jpg,funnel.jpg,alligator.jpg,acorn.jpg,africanelephant.jpg,urinal.jpg,,,,,0,1,12,,,,,.\resources\statue.jpg,,,1,,,,,,,,,,,1,,,,,,,166.06661188999715,None,None,166.06661188999715,None,,,,,,,159.01746489998186,161.7674657999887,161.50080449998495,None,0.17200000001000001,162.0176039999933,None,162.0176039999933,None,164.83364249998704,None,164.83364249998704,None,right,0.9674674999841955,164.83364249998704,None,165.85021209999104,None,165.85021209999104,None,left,0.1988499999861233,165.85021209999104,None,0.07997419182069068,5.165020841895189,,001,2021_Mar_24_1027,AB_pic_singleT2,2020.2.10,59.968540501467544,
AB,lag2,2,3,5,0.16266666668000002,0.041999999999999996,0.41999999999999993,ramp,,,,,0,4,4,4,,,,,,,swordfish.jpg,bullet.jpg,nosmokingsign.jpg,smokingpipe.jpg,toilet.jpg,airhockeytable.jpg,ant.jpg,funnel.jpg,cross01.jpg,bridge.jpg,cymbal.jpg,whiteout.jpg,boxingglove01.jpg,showerhead01.jpg,tire.jpg,saxophone.jpg,badmintonracket.jpg,,,,,1,0,7,,,,,.\resources\toilet.jpg,,,1,,,,,,,,,,,1,,,,,,,172.04990728998382,None,None,172.04990728998382,None,,,,,,,166.0835778999899,168.8337804999901,168.56714639998972,None,0.16266666668000002,169.06667589998688,None,169.06667589998688,None,170.7332854999986,None,170.7332854999986,None,left,0.9797524999885354,170.7332854999986,None,171.76670579999336,None,171.76670579999336,None,right,0.2583386999904178,171.76670579999336,None,-0.07336562346515657,6.563394264044648,,001,2021_Mar_24_1027,AB_pic_singleT2,2020.2.10,59.968540501467544,
AB,lag3,3,5,8,0.15333333335000002,0.039999999999999994,0.3999999999999999,ramp,,,,,0,5,5,5,,,,,,,recyclingbin.jpg,jeep.jpg,tent.jpg,bowlingball.jpg,electrictoothbrush01c.jpg,hand01b.jpg,bowlingpin.jpg,curtain.jpg,acorn.jpg,snowshovel.jpg,steeringwheel.jpg,guitarcase.jpg,cow.jpg,dandelion.jpg,shower.jpg,microwave.jpg,drumset.jpg,,,,,0,0,10,,,,,.\resources\curtain.jpg,,,1,,,,,,,,,,,1,,,,,,,177.7824828899902,None,None,177.7824828899902,None,,,,,,,172.06651249999413,174.81676570000127,174.55012010000064,None,0.15333333335000002,175.0496363999846,None,175.0496363999846,None,177.19962229998782,None,177.19962229998782,None,right,0.32145990000572056,177.19962229998782,None,177.58280829997966,None,177.58280829997966,None,right,0.17024730000412092,177.58280829997966,None,-0.20606829490825257,7.843841893364031,,001,2021_Mar_24_1027,AB_pic_singleT2,2020.2.10,59.968540501467544,
AB,lag1,1,4,5,0.14400000002000002,0.03799999999999999,0.3799999999999999,ramp,,,,,0,6,6,6,,,,,,,scooter.jpg,lawnmower.jpg,swordfish.jpg,cat.jpg,bullet.jpg,kangaroo.jpg,spicerack.jpg,toad.jpg,hulahoop.jpg,mrpotatohead.jpg,ant.jpg,daddylonglegs.jpg,nosmokingsign.jpg,soccerball.jpg,harmonica.jpg,redfox.jpg,punchingbag.jpg,,,,,1,0,7,,,,,.\resources\bullet.jpg,,,1,,,,,,,,,,,1,,,,,,,183.04889478998666,None,None,183.04889478998666,None,,,,,,,177.79946389998076,180.54966879999847,180.28303379999124,None,0.14400000002000002,180.78286919998936,None,180.78286919998936,None,182.26582259999122,None,182.26582259999122,None,left,0.559241299983114,182.26582259999122,None,182.88256529998034,None,182.88256529998034,None,right,0.14248499998939224,182.88256529998034,None,-0.32100986444971263,9.020688232098905,,001,2021_Mar_24_1027,AB_pic_singleT2,2020.2.10,59.968540501467544,
AB,lag6,6,5,11,0.13466666669000002,0.03599999999999999,0.3599999999999999,ramp,,,,,0,7,7,7,,,,,,,lion.jpg,handcuffs.jpg,athleticsock.jpg,christmastree.jpg,swordfish.jpg,mouse.jpg,paperairplane.jpg,cashregister01.jpg,marble.jpg,punchingbag.jpg,beerbottle.jpg,smokingpipe.jpg,helicopter.jpg,schoolbus.jpg,sausage.jpg,saltshaker03a.jpg,nose.jpg,,,,,1,0,13,,,,,.\resources\beerbottle.jpg,,,1,,,,,,,,,,,1,,,,,,,188.9983915899793,None,None,188.9983915899793,None,,,,,,,183.0658134999976,185.8163125999854,185.54931229999056,None,0.13466666669000002,186.06596310000168,None,186.06596310000168,None,188.4658700999862,None,188.4658700999862,None,left,0.3271867999865208,188.4658700999862,None,188.84868329999154,None,188.84868329999154,None,right,0.12037349998718128,188.84868329999154,None,-0.4204018074037011,10.106282387469761,,001,2021_Mar_24_1027,AB_pic_singleT2,2020.2.10,59.968540501467544,
AB,lag3,3,4,7,0.12533333336000002,0.03399999999999999,0.33999999999999986,ramp,,,,,0,8,8,8,,,,,,,kiwi03.jpg,redfox.jpg,parrot01.jpg,acousticguitar02.jpg,moose.jpg,leafblower01.jpg,snowshoe.jpg,grizzly.jpg,zipper.jpg,vacuumcleaner01.jpg,surfboard.jpg,dolphin01.jpg,statue.jpg,handcuffs.jpg,swing.jpg,drumstick.jpg,uprightpiano01.jpg,,,,,1,1,9,,,,,.\resources\snowshoe.jpg,,,1,,,,,,,,,,,1,,,,,,,194.73189049000212,None,None,194.73189049000212,None,,,,,,,189.01550629999838,191.76554510000278,191.49909759999719,None,0.12533333336000002,192.01623929999187,None,192.01623929999187,None,193.6151644999918,None,193.6151644999918,None,left,0.8898950000002515,193.6151644999918,None,194.56516369999736,None,194.56516369999736,None,left,0.1478759000019636,194.56516369999736,None,-0.5059526303403928,11.11112106886847,,001,2021_Mar_24_1027,AB_pic_singleT2,2020.2.10,59.968540501467544,
AB,lag4,4,4,8,0.11600000003000002,0.03199999999999999,0.31999999999999984,ramp,,,,,0,9,9,9,,,,,,,rooster.jpg,banjo.jpg,bullet.jpg,leafblower01.jpg,elbow.jpg,accordion01.jpg,sword01.jpg,surfboard.jpg,platypus.jpg,cork02.jpg,coffeemaker.jpg,callbell.jpg,spicerack.jpg,squid.jpg,worldmap.jpg,butterfly.jpg,leafrake.jpg,,,,,1,0,10,,,,,.\resources\surfboard.jpg,,,1,,,,,,,,,,,1,,,,,,,200.04769948999456,None,None,200.04769948999456,None,,,,,,,194.7482923999778,197.49855999997817,197.2318624999898,None,0.11600000003000002,197.74849139997968,None,197.74849139997968,None,199.3814999999886,None,199.3814999999886,None,left,0.46753219998208806,199.3814999999886,None,199.8983065999928,None,199.8983065999928,None,right,0.12673190000350587,199.8983065999928,None,-0.5789926499519146,12.044042740601942,,001,2021_Mar_24_1027,AB_pic_singleT2,2020.2.10,59.968540501467544,
AB,lag5,5,4,9,0.10666666670000002,0.029999999999999985,0.2999999999999998,ramp,,,,,0,10,10,10,,,,,,,tire.jpg,drumstick.jpg,tennisracket.jpg,scorpion.jpg,squid.jpg,eiffeltower.jpg,horseshoe.jpg,anchor.jpg,sword01.jpg,windmill.jpg,badmintonracket.jpg,microphone01.jpg,lighthouse.jpg,panda.jpg,treadmill.jpg,schoolbus.jpg,lawnmower.jpg,,,,,0,1,11,,,,,.\resources\sword01.jpg,,,1,,,,,,,,,,,1,,,,,,,206.14729648998764,None,None,206.14729648998764,None,,,,,,,200.06472029999713,202.81483019998996,202.5482063999807,None,0.10666666670000002,203.04777229999308,None,203.04777229999308,None,204.71434269999736,None,204.71434269999736,None,right,1.2387091999989934,204.71434269999736,None,206.01429189997725,None,206.01429189997725,None,left,0.11488149999058805,206.01429189997725,None,-0.6405709349534966,12.91243706559353,,001,2021_Mar_24_1027,AB_pic_singleT2,2020.2.10,59.968540501467544,
AB,lag2,2,3,5,0.09733333337000002,0.027999999999999983,0.3,ramp,,,,,0,11,11,11,,,,,,,windshieldwiper02.jpg,birdfeeder.jpg,makiroll.jpg,wheelchair.jpg,moon.jpg,mailbox02.jpg,hand01b.jpg,ladder.jpg,stubbywrench01a.jpg,dalmatian.jpg,bow.jpg,dromedary.jpg,chainsaw.jpg,frisbee.jpg,smokingpipe.jpg,panda.jpg,christmastree.jpg,,,,,0,0,7,,,,,.\resources\moon.jpg,,,1,,,,,,,,,,,1,,,,,,,210.79702158998407,None,None,210.79702158998407,None,,,,,,,206.16425849997904,208.91446030000225,208.63116920000175,None,0.09733333337000002,209.14782529999502,None,209.14782529999502,None,210.16399040000397,None,210.16399040000397,None,right,0.3970351000025403,210.16399040000397,None,210.6139497999975,None,210.6139497999975,None,right,0.1632081999850925,210.6139497999975,None,-0.691531668870789,13.722443445906158,,001,2021_Mar_24_1027,AB_pic_singleT2,2020.2.10,59.968540501467544,
AB,lag1,1,4,5,0.08800000004000003,0.02599999999999998,0.3,ramp,,,,,0,12,12,12,,,,,,,pigeon.jpg,trophy01.jpg,boat.jpg,zebra.jpg,kiwi03.jpg,cat.jpg,toad.jpg,basketball01.jpg,windmill.jpg,floorlamp.jpg,lion.jpg,funnel.jpg,urinal.jpg,rubikcube.jpg,christmastree.jpg,dalmatian.jpg,jeans01.jpg,,,,,0,0,7,,,,,.\resources\kiwi03.jpg,,,1,,,,,,,,,,,1,,,,,,,215.3133825900004,None,None,215.3133825900004,None,,,,,,,210.81397739998647,213.56420510000316,213.29753919999348,None,0.08800000004000003,213.79710339999292,None,213.79710339999292,None,214.7304112999991,None,214.7304112999991,None,right,0.37467729998752475,214.7304112999991,None,215.16368739999598,None,215.16368739999598,None,right,0.1335399000090547,215.16368739999598,None,-0.7325751559550349,14.479128286834007,,001,2021_Mar_24_1027,AB_pic_singleT2,2020.2.10,59.968540501467544,
AB,lag7,7,5,12,0.07866666671000003,0.02399999999999998,0.3,ramp,,,,,0,13,13,13,,,,,,,mrpotatohead.jpg,wallclock.jpg,cruiseship.jpg,skunk.jpg,grizzly.jpg,sheep.jpg,surfboard.jpg,fridge.jpg,golfball.jpg,witchhat.jpg,cigar.jpg,zipper.jpg,dalmatian.jpg,icecube02.jpg,greathornowl.jpg,tulip02.jpg,urinal.jpg,,,,,1,0,14,,,,,.\resources\zipper.jpg,,,1,,,,,,,,,,,1,,,,,,,220.6297140899842,None,None,220.6297140899842,None,,,,,,,215.33033679999062,218.08058119998896,217.8138489999983,None,0.07866666671000003,218.31346109998412,None,218.31346109998412,None,219.8801625999913,None,219.8801625999913,None,left,0.568914000003133,219.8801625999913,None,220.5134930999775,None,220.5134930999775,None,right,0.09566199997789226,220.5134930999775,None,-0.7643069272183045,15.186638510210253,,001,2021_Mar_24_1027,AB_pic_singleT2,2020.2.10,59.968540501467544,
AB,lag1,1,3,4,0.06933333338000003,0.021999999999999978,0.3,ramp,,,,,0,14,14,14,,,,,,,apron.jpg,sledgehammer.jpg,trampoline.jpg,snowshovel.jpg,scorpion.jpg,football.jpg,dreamcatcher.jpg,chimney.jpg,stool01.jpg,trumpet.jpg,rooster.jpg,polarbear.jpg,swordfish.jpg,bed.jpg,waterfountain02.jpg,kiwi03.jpg,soccerball.jpg,,,,,0,0,6,,,,,.\resources\snowshovel.jpg,,,1,,,,,,,,,,,1,,,,,,,225.12938268999278,None,None,225.12938268999278,None,,,,,,,220.6466722000041,223.39690369999153,223.13021649999428,None,0.06933333338000003,223.62981679997756,None,223.62981679997756,None,224.2968299999775,None,224.2968299999775,None,right,0.47233150000101887,224.2968299999775,None,224.8296661999775,None,224.8296661999775,None,right,0.2754025000031106,224.8296661999775,None,-0.7872770561007252,15.848332446349422,,001,2021_Mar_24_1027,AB_pic_singleT2,2020.2.10,59.968540501467544,
AB,lag6,6,5,11,0.06000000005000003,0.02,0.3,main,,,,,0,15,15,15,,,,,,,dormer.jpg,waterfountain02.jpg,shovel01.jpg,foosballtable.jpg,trampoline.jpg,steeringwheel.jpg,acorn.jpg,apron.jpg,raccoon.jpg,toyanimal05.jpg,granolabar01.jpg,kite.jpg,footballhelmet.jpg,lollipop04.jpg,porcupine.jpg,fingerprint.jpg,seagull.jpg,,,,,1,0,13,,,,,.\resources\granolabar01.jpg,,,1,,,,,,,,,,,1,,,,,,,232.4122509899753,None,None,232.4122509899753,None,,,,,,,225.1464452999935,227.8965862999903,227.61323560000164,None,0.13714827251249934,228.1128046999802,None,228.1128046999802,None,230.34615189998294,None,230.34615189998294,None,left,1.822887999995146,230.34615189998294,None,232.22919779998483,None,232.22919779998483,None,right,0.16383610002230853,232.22919779998483,None,-0.8399534339808453,16.481676381789228,,001,2021_Mar_24_1027,AB_pic_singleT2,2020.2.10,59.968540501467544,
AB,lag1,1,5,6,0.06000000005000003,0.02,0.3,main,,,,,0,16,16,16,,,,,,,discoball.jpg,toilet.jpg,nose.jpg,cross01.jpg,bed.jpg,foosballtable.jpg,dreamcatcher.jpg,ceilingfan01.jpg,tortoise01.jpg,eye.jpg,foot.jpg,pigeon.jpg,jeans01.jpg,tricycle.jpg,cloud.jpg,callbell.jpg,acousticguitar02.jpg,,,,,0,1,8,,,,,.\resources\foosballtable.jpg,,,1,,,,,,,,,,,1,,,,,,,240.29502509000304,None,None,240.29502509000304,None,,,,,,,232.42932589998236,235.17938829999184,234.91268389998004,None,0.13507411160921345,235.4122767999943,None,235.4122767999943,None,236.82890929997666,None,236.82890929997666,None,right,3.068195999978343,236.82890929997666,None,239.96212879999075,None,239.96212879999075,None,left,0.31095600000116974,239.96212879999075,None,-0.8894981464007662,17.09100108047107,,001,2021_Mar_24_1027,AB_pic_singleT2,2020.2.10,59.968540501467544,
AB,lag5,5,3,8,0.06000000005000003,0.02,0.3,main,,,,,0,17,17,17,,,,,,,totempole.jpg,nose.jpg,greathornowl.jpg,key07.jpg,penguin.jpg,electrictoothbrush01c.jpg,skateboard.jpg,rollerblade.jpg,apron.jpg,toyanimal05.jpg,saltshaker03a.jpg,knee.jpg,hotdogweiner.jpg,popcorn.jpg,sheep.jpg,marble.jpg,parrot01.jpg,,,,,1,0,10,,,,,.\resources\rollerblade.jpg,,,1,,,,,,,,,,,1,,,,,,,245.62804648997553,None,None,245.62804648997553,None,,,,,,,240.31213409997872,243.06220210000174,242.79559880000306,None,0.13315735554666117,243.29514869998093,None,243.29514869998093,None,245.01184929997544,None,245.01184929997544,None,left,0.43725059999269433,245.01184929997544,None,245.51168319999124,None,245.51168319999124,None,right,0.09737189998850226,245.51168319999124,None,-0.9361567413319353,17.677908830900463,,001,2021_Mar_24_1027,AB_pic_singleT2,2020.2.10,59.968540501467544,
AB,lag3,3,4,7,0.06000000005000003,0.02,0.3,main,,,,,0,18,18,18,,,,,,,totempole.jpg,pingpongtable.jpg,ear.jpg,telescope.jpg,pig.jpg,skunk.jpg,dreamcatcher.jpg,armadillo.jpg,seal.jpg,ladybug03.jpg,exitsign.jpg,rose.jpg,dalmatian.jpg,elbow.jpg,birdhouse.jpg,crab01.jpg,wheelbarrow01.jpg,,,,,0,1,9,,,,,.\resources\dreamcatcher.jpg,,,1,,,,,,,,,,,1,,,,,,,251.66095328998927,None,None,251.66095328998927,None,,,,,,,245.64511039998615,248.3952129999816,248.1285882999946,None,0.1313758954561554,248.62817529999302,None,248.62817529999302,None,250.16154059997643,None,250.16154059997643,None,right,0.9675631000136491,250.16154059997643,None,251.17811229999643,None,251.17811229999643,None,left,0.4629691999871284,251.17811229999643,None,-0.9801741443065919,18.24388951738383,,001,2021_Mar_24_1027,AB_pic_singleT2,2020.2.10,59.968540501467544,
AB,lag2,2,5,7,0.06000000005000003,0.02,0.3,main,,,,,0,19,19,19,,,,,,,spear02.jpg,seagull.jpg,vacuumcleaner01.jpg,baseballbat.jpg,cigar.jpg,showerhead01.jpg,nose.jpg,bowtie.jpg,bow.jpg,tiger02.jpg,football.jpg,ear.jpg,fishskeleton.jpg,armadillo.jpg,magneticcompass.jpg,snowshoe.jpg,greatwhiteshark.jpg,,,,,0,1,9,,,,,.\resources\nose.jpg,,,1,,,,,,,,,,,1,,,,,,,257.0939559899998,None,None,257.0939559899998,None,,,,,,,251.67806740000378,254.428251299978,254.16115810000338,None,0.12971293775768453,254.66112639999483,None,254.66112639999483,None,256.17785710000317,None,256.17785710000317,None,right,0.7112549000012223,256.17785710000317,None,256.94429449999006,None,256.94429449999006,None,left,0.12082450001616962,256.94429449999006,None,-1.021768710767374,18.79032336612536,,001,2021_Mar_24_1027,AB_pic_singleT2,2020.2.10,59.968540501467544,
AB,lag4,4,3,7,0.06000000005000003,0.02,0.3,main,,,,,0,20,20,20,,,,,,,well.jpg,tortoise01.jpg,swordfish.jpg,witchhat.jpg,butterfly.jpg,rubikcube.jpg,lip.jpg,ladder.jpg,noparkingsign.jpg,pirateflag.jpg,recyclingbin.jpg,curtain.jpg,sword01.jpg,saxophone.jpg,bull.jpg,christmastree.jpg,spear02.jpg,,,,,1,0,9,,,,,.\resources\lip.jpg,,,0,,,,,,,,,,,1,,,,,,,263.9101601899747,None,None,263.9101601899747,None,,,,,,,257.1111135999963,259.8611381999799,259.57786119999946,None,0.12815442421967305,260.0773573999759,None,260.0773573999759,None,261.59401380000054,None,261.59401380000054,None,right,1.2950885999889579,261.59401380000054,None,262.9440493999864,None,262.9440493999864,None,right,0.9370518999930937,262.9440493999864,None,-1.1777084694951923,19.273405099038598,,001,2021_Mar_24_1027,AB_pic_singleT2,2020.2.10,59.968540501467544,
AB,lag7,7,5,12,0.06000000005000003,0.02,0.3,main,,,,,0,21,21,21,,,,,,,bacon.jpg,bat.jpg,barrel01.jpg,chair.jpg,dragonfly01.jpg,birthdaycandle.jpg,pingpongtable.jpg,bowlingball.jpg,rubikcube.jpg,calendar.jpg,wheelbarrow01.jpg,xylophone.jpg,lighthouse.jpg,mrpotatohead.jpg,volleyball.jpg,acousticguitar02.jpg,trophy01.jpg,,,,,0,1,14,,,,,.\resources\xylophone.jpg,,,1,,,,,,,,,,,1,,,,,,,270.34309378998296,None,None,270.34309378998296,None,,,,,,,263.92755419999594,266.6773126999906,266.41070999999647,None,0.13303320391179768,266.9103028999816,None,266.9103028999816,None,269.2267707999854,None,269.2267707999854,None,right,0.6862816000066232,269.2267707999854,None,269.9767466999765,None,269.9767466999765,None,left,0.33639149999362417,269.9767466999765,None,-1.2121941870404331,19.751360760895185,,001,2021_Mar_24_1027,AB_pic_singleT2,2020.2.10,59.968540501467544,
AB,lag6,6,5,11,0.06000000005000003,0.02,0.3,main,,,,,0,22,22,22,,,,,,,apron.jpg,lawnmower.jpg,foldingchair.jpg,totempole.jpg,grizzly.jpg,tennisracket.jpg,sword01.jpg,treadmill.jpg,schoolbus.jpg,pirateflag.jpg,chefshat.jpg,nose.jpg,leafblower01.jpg,armadillo.jpg,raccoon.jpg,bowlingball.jpg,tiger02.jpg,,,,,0,0,13,,,,,.\resources\chefshat.jpg,,,1,,,,,,,,,,,1,,,,,,,277.7759177900007,None,None,277.7759177900007,None,,,,,,,270.3600750999758,273.11030729999766,272.8269355999946,None,0.13155997602478875,273.32653219997883,None,273.32653219997883,None,275.4764983999776,None,275.4764983999776,None,right,1.948608599981526,275.4764983999776,None,277.4762770999805,None,277.4762770999805,None,right,0.284763000003295,277.4762770999805,None,-1.2448775795834481,20.21556655067962,,001,2021_Mar_24_1027,AB_pic_singleT2,2020.2.10,59.968540501467544,
AB,lag7,7,5,12,0.06000000005000003,0.02,0.3,main,,,,,0,23,23,23,,,,,,,frenchfries.jpg,eiffeltower.jpg,leafblower01.jpg,nosmokingsign.jpg,showerhead01.jpg,zipper.jpg,smokingpipe.jpg,cigar.jpg,tennisracket.jpg,guitarcase.jpg,athleticsock.jpg,seagull.jpg,polarbear.jpg,fireplace.jpg,saltshaker03a.jpg,stubbywrench01a.jpg,cross01.jpg,,,,,0,1,14,,,,,.\resources\seagull.jpg,,,1,,,,,,,,,,,1,,,,,,,284.29218218997994,None,None,284.29218218997994,None,,,,,,,277.79292799998075,280.54312180000124,280.27608159999363,None,0.13015573588338944,280.7760425999877,None,280.7760425999877,None,283.05925229997956,None,283.05925229997956,None,right,0.949766500008991,283.05925229997956,None,284.0593321999768,None,284.0593321999768,None,left,0.21385090000694618,284.0593321999768,None,-1.2761165345385026,20.666729366467415,,001,2021_Mar_24_1027,AB_pic_singleT2,2020.2.10,59.968540501467544,
AB,lag5,5,3,8,0.06000000005000003,0.02,0.3,main,,,,,0,24,24,24,,,,,,,cobra.jpg,tarantula.jpg,kangaroo.jpg,bathtub.jpg,skunk.jpg,granolabar01.jpg,saltshaker03a.jpg,fingerprint.jpg,humanskeleton.jpg,ladder.jpg,cat.jpg,ostrich.jpg,fishskeleton.jpg,kneepad01c.jpg,elbow.jpg,trampoline.jpg,foldingchair.jpg,,,,,0,0,10,,,,,.\resources\fingerprint.jpg,,,1,,,,,,,,,,,1,,,,,,,289.59184308997646,None,None,289.59184308997646,None,,,,,,,284.3091564999777,287.05937189998804,286.7760526999773,None,0.12882594282084422,287.27561919999425,None,287.27561919999425,None,288.942186500004,None,288.942186500004,None,right,0.394931099988753,288.942186500004,None,289.3921649999975,None,289.3921649999975,None,right,0.1769382000202313,289.3921649999975,None,-1.3059978298957142,21.10553643118282,,001,2021_Mar_24_1027,AB_pic_singleT2,2020.2.10,59.968540501467544,
,,,,,,,,,,,,,,,,,,,,,,,skunk.jpg,squirrel.jpg,zebra.jpg,witchhat.jpg,pig.jpg,zipper.jpg,swing.jpg,frenchfries.jpg,lily.jpg,lollipop04.jpg,eyepatch.jpg,musicsheet.jpg,doghouse.jpg,redfox.jpg,sword01.jpg,acorn.jpg,knee.jpg,,,,,,,,,,,,,,,,,,,,,,,,,,,,,,,,,,,,,,,,,,,,,,,,,,,,,,,,,,,,,,,,,,,,,,,,,,,,,
