trialType,cndTyp,lag,T1_loc,T2_loc,stimLen,isi,skipProb,phase,trials.thisRepN,trials.thisTrialN,trials.thisN,trials.thisIndex,trials2.thisRepN,trials2.thisTrialN,trials2.thisN,trials2.thisIndex,text_3.started,text_3.stopped,key_resp_4.keys,key_resp_4.rt,key_resp_4.started,key_resp_4.stopped,img0,img1,img2,img3,img4,img5,img6,img7,img8,img9,img10,img11,img12,img13,img14,img15,img16,option1.started,option1.stopped,option2.started,option2.stopped,text_2.started,text_2.stopped,skip1,skip2,lastPresent,displayPicture.started,displayPicture.stopped,polygon_2.started,polygon_2.stopped,opt1_t1,polygon_4.started,polygon_4.stopped,cor1,option1_t1.started,option1_t1.stopped,key_resp.keys,key_resp.rt,key_resp.started,key_resp.stopped,polygon_5.started,polygon_5.stopped,cor2,option1_t2.started,option1_t2.stopped,key_resp_2.keys,key_resp_2.rt,key_resp_2.started,key_resp_2.stopped,feedbackText.started,feedbackText.stopped,text.started,text.stopped,key_resp_3.keys,key_resp_3.started,key_resp_3.stopped,text_4.started,text_4.stopped,key_resp_7.keys,key_resp_7.rt,key_resp_7.started,key_resp_7.stopped,option1_2.started,option1_2.stopped,option2_2.started,option2_2.stopped,text_5.started,text_5.stopped,t0,t1,t2,t3,t4,t5,t6,t7,t8,t9,t10,t11,t12,t13,displayPicture_3.started,displayPicture_3.stopped,polygon_13.started,polygon_13.stopped,polygon_7.started,polygon_7.stopped,option1_t1_2.started,option1_t1_2.stopped,key_resp_6.keys,key_resp_6.rt,key_resp_6.started,key_resp_6.stopped,polygon_6.started,polygon_6.stopped,option1_t2_2.started,option1_t2_2.stopped,key_resp_5.keys,key_resp_5.rt,key_resp_5.started,key_resp_5.stopped,t14,key_resp_3.rt,participant,session,date,expName,psychopyVersion,frameRate,
,,,,,,,,,,,,,,,,,6.1110743999888655,None,space,0.9547091000131331,6.1110743999888655,None,,,,,,,,,,,,,,,,,,,,,,,,,,,,,,,,,,,,,,,,,,,,,,,,,,,,,,,,,,,,,,,,,,,,,,,,,,,,,,,,,,,,,,,,,,,,,,,,,,,,,,,,,,001,2021_Mar_17_1315,AB_pic,2020.2.10,59.98857817329337,
AB,lag6,6,5,11,0.2,0.05,0.5,,0,0,0,0,,,,,,,,,,,boxingglove01.jpg,candycane01a.jpg,hammerheadshark.jpg,triangle.jpg,xylophone.jpg,trophy01.jpg,chair.jpg,alligator.jpg,ant.jpg,africanelephant.jpg,pingpongtable.jpg,mummy.jpg,noparkingsign.jpg,moon.jpg,makiroll.jpg,acousticguitar02.jpg,tortoise01.jpg,7.141335699998308,9.89118399999279,7.141335699998308,9.89118399999279,9.624474699987331,None,1,1,13,10.10779769999499,None,10.10779769999499,None,.\resources\pingpongtable.jpg,13.60731369999121,None,1,13.60731369999121,None,left,1.6744468999968376,13.60731369999121,None,15.32403720000002,None,1,15.32403720000002,None,left,0.23769829999946523,15.32403720000002,None,15.607323699994595,None,16.607244909991277,None,None,16.607244909991277,None,,,,,,,,,,,,,,,,,,,,,,,,,,,,,,,,,,,,,,,,,,,,,,,,,,001,2021_Mar_17_1315,AB_pic,2020.2.10,59.98857817329337,
,,,,,,,,,,,,,,,,,,,,,,,,,,,,,,,,,,,,,,,,,,,,,,,,,,,,,,,,,,,,,,,,,,,,,,,,,,,,,,,16.6072492999956,None,space,1.8728368999873055,16.6072492999956,None,,,,,,,,,,,,,,,,,,,,,,,,,,,,,,,,,,,,,,,,,,,,001,2021_Mar_17_1315,AB_pic,2020.2.10,59.98857817329337,
AB,lag6,6,5,11,0.2,0.05,0.5,ramp,,,,,0,0,0,0,,,,,,,trophy01.jpg,flag.jpg,mummy.jpg,ant.jpg,shovel01.jpg,africanelephant.jpg,holdfast.jpg,boxingglove01.jpg,tulip02.jpg,banjo.jpg,hammerheadshark.jpg,makiroll.jpg,alligator.jpg,candycane01a.jpg,acousticguitar02.jpg,dolphin01.jpg,chair.jpg,,,,,,,0,1,13,,,,,.\resources\hammerheadshark.jpg,,,1,,,,,,,,,1,,,,,,,,,26.090075209987116,None,None,26.090075209987116,None,,,,,,,18.557157699993695,21.30735139999888,18.557157699993695,21.30735139999888,21.040370499991695,None,0.26588939999055583,0.5158850000007078,0.7654892999998992,1.0155508999887388,1.2655521999986377,1.5155519999971148,1.7655106000020169,2.015540799999144,2.2654747999913525,2.5154991999879712,2.765494999999646,3.01547009999922,3.265457100002095,3.515384799989988,21.52363109998987,None,21.52363109998987,None,25.05680229999416,None,25.05680229999416,None,right,0.7449221999995643,25.05680229999416,None,25.840093099992373,None,25.840093099992373,None,left,0.2336844000092242,25.840093099992373,None,,,,001,2021_Mar_17_1315,AB_pic,2020.2.10,59.98857817329337,
AB,lag4,4,4,8,0.193334,0.05,0.48,ramp,,,,,0,1,1,1,,,,,,,mummy.jpg,tortoise01.jpg,trophy01.jpg,africanelephant.jpg,bow.jpg,eyepatch.jpg,tulip02.jpg,acousticguitar02.jpg,candycane01a.jpg,alligator.jpg,boxingglove01.jpg,chair.jpg,blender.jpg,moon.jpg,triangle.jpg,holdfast.jpg,penguin.jpg,,,,,,,0,0,10,,,,,.\resources\acousticguitar02.jpg,,,1,,,,,,,,,1,,,,,,,,,32.372997709989434,None,None,32.372997709989434,None,,,,,,,26.106743199998164,28.856591399991885,26.106743199998164,28.856591399991885,28.589907099987613,None,0.24766649999946821,0.49766550000640564,0.7309556999971392,0.9810139000037452,1.2309614999976475,1.4643059999943944,1.7142724000004819,1.9475542000000132,2.197543100002804,2.4475343999947654,2.6809129000030225,,,,29.089911699993536,None,29.089911699993536,None,31.789721599998302,None,31.789721599998302,None,right,0.3320034000062151,31.789721599998302,None,32.156356399995275,None,32.156356399995275,None,right,0.18936200000462122,32.156356399995275,None,,,,001,2021_Mar_17_1315,AB_pic,2020.2.10,59.98857817329337,
AB,lag7,7,4,11,0.186668,0.05,0.45999999999999996,ramp,,,,,0,2,2,2,,,,,,,mummy.jpg,moon.jpg,blender.jpg,triangle.jpg,tortoise01.jpg,cocktailshrimp02.jpg,alligator.jpg,eyepatch.jpg,penguin.jpg,dolphin01.jpg,makiroll.jpg,candycane01a.jpg,chair.jpg,cashregister01.jpg,trophy01.jpg,holdfast.jpg,bow.jpg,,,,,,,0,0,13,,,,,.\resources\makiroll.jpg,,,1,,,,,,,,,1,,,,,,,,,39.40590630998777,None,None,39.40590630998777,None,,,,,,,32.38967689999845,35.13947959999496,32.38967689999845,35.13947959999496,34.87282299999788,None,0.24775789999694098,0.4810870000073919,0.7143956000072649,0.9477297999983421,1.1977131000021473,1.4310012000059942,1.6643171000032453,1.8976053999940632,2.1309834999992745,2.3809652000054484,2.614305900002364,2.8476229999942007,3.080948400005582,3.3142721000040183,35.372802799989586,None,35.372802799989586,None,38.70594339999661,None,38.70594339999661,None,right,0.4317831000080332,38.70594339999661,None,39.172541799998726,None,39.172541799998726,None,right,0.20518299999821465,39.172541799998726,None,,,,001,2021_Mar_17_1315,AB_pic,2020.2.10,59.98857817329337,
AB,lag5,5,5,10,0.180002,0.05,0.43999999999999995,ramp,,,,,0,3,3,3,,,,,,,dolphin01.jpg,tortoise01.jpg,eyepatch.jpg,africanelephant.jpg,alligator.jpg,flag.jpg,boxingglove01.jpg,penguin.jpg,triangle.jpg,pingpongtable.jpg,candycane01a.jpg,blender.jpg,chair.jpg,acousticguitar02.jpg,ant.jpg,cashregister01.jpg,bow.jpg,,,,,,,0,0,12,,,,,.\resources\pingpongtable.jpg,,,1,,,,,,,,,1,,,,,,,,,46.0387609099882,None,None,46.0387609099882,None,,,,,,,39.42256149998866,42.17233109999506,39.42256149998866,42.17233109999506,41.905734599989955,None,0.23101150000002235,0.4643345000076806,0.6976332000049297,0.9309649000060745,1.1642813000071328,1.3809655000077328,1.6142707000108203,1.847601700006635,2.0808937000110745,2.314227700000629,2.530880700011039,2.764228900006856,2.997529200001736,,42.4056622999924,None,42.4056622999924,None,45.42217239999445,None,45.42217239999445,None,right,0.34750530000019353,45.42217239999445,None,45.80540669999027,None,45.80540669999027,None,right,0.21229630000016186,45.80540669999027,None,,,,001,2021_Mar_17_1315,AB_pic,2020.2.10,59.98857817329337,
AB,lag2,2,3,5,0.173336,0.05,0.41999999999999993,ramp,,,,,0,4,4,4,,,,,,,trophy01.jpg,moon.jpg,africanelephant.jpg,bow.jpg,blender.jpg,xylophone.jpg,mummy.jpg,banjo.jpg,candycane01a.jpg,ant.jpg,eyepatch.jpg,makiroll.jpg,tortoise01.jpg,hammerheadshark.jpg,alligator.jpg,holdfast.jpg,acousticguitar02.jpg,,,,,,,1,0,7,,,,,.\resources\blender.jpg,,,1,,,,,,,,,1,,,,,,,,,51.75502270998841,None,None,51.75502270998841,None,,,,,,,46.05538779999188,48.80526549999195,46.05538779999188,48.80526549999195,48.538608499991824,None,0.23144080000929534,0.44809360000363085,0.6814420000009704,0.8980636000051163,1.1313561999995727,1.3479872000025352,1.5646551000099862,1.7979581999970833,,,,,,,49.03858199999377,None,49.03858199999377,None,50.85510659999272,None,50.85510659999272,None,left,0.6506542999995872,50.85510659999272,None,51.538534499995876,None,51.538534499995876,None,right,0.19914909999351948,51.538534499995876,None,,,,001,2021_Mar_17_1315,AB_pic,2020.2.10,59.98857817329337,
AB,lag3,3,5,8,0.16666999999999998,0.05,0.3999999999999999,ramp,,,,,0,5,5,5,,,,,,,makiroll.jpg,bow.jpg,banjo.jpg,pingpongtable.jpg,cashregister01.jpg,candycane01a.jpg,acousticguitar02.jpg,tortoise01.jpg,ant.jpg,eyepatch.jpg,dolphin01.jpg,noparkingsign.jpg,mummy.jpg,alligator.jpg,boxingglove01.jpg,cocktailshrimp02.jpg,triangle.jpg,,,,,,,0,0,10,,,,,.\resources\tortoise01.jpg,,,1,,,,,,,,,1,,,,,,,,,57.70464400999772,None,None,57.70464400999772,None,,,,,,,51.771677599987015,54.52192709999508,51.771677599987015,54.52192709999508,54.25530849999632,None,0.2317678999970667,0.44793209999625105,0.6645847000036156,0.881244100004551,1.0978565999976126,1.3145814000017708,1.531257700000424,1.7478103000030387,1.9645126999967033,2.18114479999349,2.3978026999975555,,,,54.75483599999279,None,54.75483599999279,None,57.17132809999748,None,57.17132809999748,None,right,0.2943762999930186,57.17132809999748,None,57.504664899999625,None,57.504664899999625,None,right,0.18506500001240056,57.504664899999625,None,,,,001,2021_Mar_17_1315,AB_pic,2020.2.10,59.98857817329337,
AB,lag1,1,4,5,0.16000399999999998,0.05,0.3799999999999999,ramp,,,,,0,6,6,6,,,,,,,shovel01.jpg,eyepatch.jpg,birdfeeder.jpg,alligator.jpg,trophy01.jpg,banjo.jpg,boxingglove01.jpg,triangle.jpg,hammerheadshark.jpg,africanelephant.jpg,blender.jpg,mummy.jpg,ant.jpg,acousticguitar02.jpg,tortoise01.jpg,makiroll.jpg,noparkingsign.jpg,,,,,,,0,0,7,,,,,.\resources\trophy01.jpg,,,1,,,,,,,,,1,,,,,,,,,62.970921509989424,None,None,62.970921509989424,None,,,,,,,57.72131699998863,60.471532999988995,57.72131699998863,60.471532999988995,60.20487560000038,None,0.21431969999684952,0.4309690999943996,0.6305491999955848,0.8472253999934765,1.0638910999987274,1.2638627999986056,1.4805374999996275,1.6805289999902016,,,,,,,60.70443699999305,None,60.70443699999305,None,62.404341099987505,None,62.404341099987505,None,right,0.341366199994809,62.404341099987505,None,62.77092759999505,None,62.77092759999505,None,right,0.18277590000070632,62.77092759999505,None,,,,001,2021_Mar_17_1315,AB_pic,2020.2.10,59.98857817329337,
AB,lag6,6,5,11,0.15333799999999997,0.05,0.3599999999999999,ramp,,,,,0,7,7,7,,,,,,,alligator.jpg,penguin.jpg,mummy.jpg,xylophone.jpg,tortoise01.jpg,cocktailshrimp02.jpg,acousticguitar02.jpg,chair.jpg,ant.jpg,bow.jpg,birdfeeder.jpg,cashregister01.jpg,makiroll.jpg,flag.jpg,hammerheadshark.jpg,dolphin01.jpg,noparkingsign.jpg,,,,,,,0,1,13,,,,,.\resources\birdfeeder.jpg,,,1,,,,,,,,,1,,,,,,,,,70.00383730999893,None,None,70.00383730999893,None,,,,,,,62.987605099988286,65.73784209998848,62.987605099988286,65.73784209998848,65.47120789998735,None,0.2146107999869855,0.4141906999866478,0.6141850999993039,0.8141757999983383,1.030798899999354,1.230802499994752,1.4308181999949738,1.6308219999918947,1.8308114999963436,2.04745019999973,2.247447199988528,2.447447899990948,2.6473962999880314,2.847412599992822,65.97074589999102,None,65.97074589999102,None,68.83725379999669,None,68.83725379999669,None,right,0.9324341000028653,68.83725379999669,None,69.80385050000041,None,69.80385050000041,None,left,0.17384499999752734,69.80385050000041,None,,,,001,2021_Mar_17_1315,AB_pic,2020.2.10,59.98857817329337,
AB,lag3,3,4,7,0.14667199999999997,0.05,0.33999999999999986,ramp,,,,,0,8,8,8,,,,,,,tortoise01.jpg,chair.jpg,dolphin01.jpg,moon.jpg,xylophone.jpg,blender.jpg,makiroll.jpg,banjo.jpg,holdfast.jpg,hammerheadshark.jpg,acousticguitar02.jpg,candycane01a.jpg,mummy.jpg,tulip02.jpg,trophy01.jpg,triangle.jpg,cocktailshrimp02.jpg,,,,,,,0,0,9,,,,,.\resources\makiroll.jpg,,,1,,,,,,,,,1,,,,,,,,,75.57010190999718,None,None,75.57010190999718,None,,,,,,,70.02064449999307,72.77082329998666,70.02064449999307,72.77082329998666,72.5041857999895,None,0.1976855999964755,0.39766859999508597,0.5976582000002963,0.7976535000052536,0.9975709999998799,1.1809028999996372,1.380872299996554,1.580878799999482,1.780856199999107,1.980872800006182,,,,,73.00368189999426,None,73.00368189999426,None,75.00353649999306,None,75.00353649999306,None,right,0.3741437999997288,75.00353649999306,None,75.42014279999421,None,75.42014279999421,None,right,0.13357560000440571,75.42014279999421,None,,,,001,2021_Mar_17_1315,AB_pic,2020.2.10,59.98857817329337,
AB,lag4,4,4,8,0.14000599999999996,0.05,0.31999999999999984,ramp,,,,,0,9,9,9,,,,,,,trophy01.jpg,dolphin01.jpg,bow.jpg,tortoise01.jpg,alligator.jpg,flag.jpg,ant.jpg,holdfast.jpg,mummy.jpg,eyepatch.jpg,banjo.jpg,shovel01.jpg,blender.jpg,acousticguitar02.jpg,tulip02.jpg,hammerheadshark.jpg,chair.jpg,,,,,,,1,1,10,,,,,.\resources\holdfast.jpg,,,0,,,,,,,,,1,,,,,,,,,85.53609560999321,None,None,85.53609560999321,None,,,,,,,75.58676979999291,78.33661199999915,75.58676979999291,78.33661199999915,78.06995449999522,None,0.19793829999980517,0.38125120000040624,0.5812599000055343,0.7645939000067301,0.9645269000029657,1.1478551000036532,1.3311474000074668,1.531166700005997,1.7145309000043198,1.914540700003272,2.097809099999722,,,,78.56993189999775,None,78.56993189999775,None,80.68647859999328,None,80.68647859999328,None,right,4.507201400003396,80.68647859999328,None,85.2361041999975,None,85.2361041999975,None,left,0.2695677000010619,85.2361041999975,None,,,,001,2021_Mar_17_1315,AB_pic,2020.2.10,59.98857817329337,
AB,lag5,5,4,9,0.13333999999999996,0.05,0.2999999999999998,ramp,,,,,0,10,10,10,,,,,,,cocktailshrimp02.jpg,dolphin01.jpg,makiroll.jpg,alligator.jpg,birdfeeder.jpg,shovel01.jpg,africanelephant.jpg,penguin.jpg,noparkingsign.jpg,acousticguitar02.jpg,trophy01.jpg,tortoise01.jpg,xylophone.jpg,holdfast.jpg,pingpongtable.jpg,hammerheadshark.jpg,eyepatch.jpg,,,,,,,1,1,11,,,,,.\resources\noparkingsign.jpg,,,1,,,,,,,,,1,,,,,,,,,93.36892040999665,None,None,93.36892040999665,None,,,,,,,85.55276939999021,88.30298849999963,85.55276939999021,88.30298849999963,88.0359274999937,None,0.1974978999933228,0.3808312000037404,0.5641520999924978,0.7470721999998204,0.9304298999923049,1.1137071999983164,1.2971158000000287,1.4803494999941904,1.6636713000043528,1.8469919999915874,2.0303353000053903,2.213634400002775,,,88.53590289999556,None,88.53590289999556,None,90.76908209999965,None,90.76908209999965,None,left,2.0168405000003986,90.76908209999965,None,92.81894689999172,None,92.81894689999172,None,left,0.5268028999998933,92.81894689999172,None,,,,001,2021_Mar_17_1315,AB_pic,2020.2.10,59.98857817329337,
AB,lag2,2,3,5,0.12667399999999995,0.05,0.2799999999999998,ramp,,,,,0,11,11,11,,,,,,,mummy.jpg,cocktailshrimp02.jpg,tulip02.jpg,boxingglove01.jpg,flag.jpg,trophy01.jpg,hammerheadshark.jpg,pingpongtable.jpg,birdfeeder.jpg,noparkingsign.jpg,penguin.jpg,xylophone.jpg,makiroll.jpg,blender.jpg,bow.jpg,tortoise01.jpg,eyepatch.jpg,,,,,,,0,1,7,,,,,.\resources\flag.jpg,,,1,,,,,,,,,1,,,,,,,,,99.01856070998765,None,None,99.01856070998765,None,,,,,,,93.38558469999407,96.13580329999968,93.38558469999407,96.13580329999968,95.86915779999981,None,0.18000940000638366,0.3634105999954045,0.5466616000048816,0.7133521000068868,0.8962238999956753,1.062894500006223,1.246182000002591,1.4295124000054784,,,,,,,96.38581309998699,None,96.38581309998699,None,97.81862059999548,None,97.81862059999548,None,right,1.0151418000023114,97.81862059999548,None,98.86855139999534,None,98.86855139999534,None,left,0.13329699999303557,98.86855139999534,None,,,,001,2021_Mar_17_1315,AB_pic,2020.2.10,59.98857817329337,
AB,lag1,1,4,5,0.12000799999999995,0.05,0.2599999999999998,ramp,,,,,0,12,12,12,,,,,,,chair.jpg,holdfast.jpg,banjo.jpg,penguin.jpg,tortoise01.jpg,birdfeeder.jpg,dolphin01.jpg,tulip02.jpg,hammerheadshark.jpg,noparkingsign.jpg,africanelephant.jpg,ant.jpg,blender.jpg,cocktailshrimp02.jpg,pingpongtable.jpg,mummy.jpg,acousticguitar02.jpg,,,,,,,1,0,7,,,,,.\resources\tortoise01.jpg,,,1,,,,,,,,,1,,,,,,,,,104.93484920999909,None,None,104.93484920999909,None,,,,,,,99.03520419998677,101.78545779999695,99.03520419998677,101.78545779999695,101.51880529998743,None,0.18107010000676382,0.347720699995989,0.5143681000045035,0.6810285999963526,0.8644219999987399,1.0310060000047088,1.19765180000104,1.364351700001862,,,,,,,102.01834539999254,None,102.01834539999254,None,103.40161879999505,None,103.40161879999505,None,left,1.328084700013278,103.40161879999505,None,104.76815889999853,None,104.76815889999853,None,right,0.13784250000026077,104.76815889999853,None,,,,001,2021_Mar_17_1315,AB_pic,2020.2.10,59.98857817329337,
AB,lag7,7,5,12,0.11334199999999994,0.05,0.2399999999999998,ramp,,,,,0,13,13,13,,,,,,,triangle.jpg,trophy01.jpg,tulip02.jpg,penguin.jpg,moon.jpg,boxingglove01.jpg,tortoise01.jpg,noparkingsign.jpg,banjo.jpg,eyepatch.jpg,chair.jpg,mummy.jpg,makiroll.jpg,africanelephant.jpg,shovel01.jpg,cashregister01.jpg,holdfast.jpg,,,,,,,0,0,14,,,,,.\resources\mummy.jpg,,,1,,,,,,,,,1,,,,,,,,,110.98444680999383,None,None,110.98444680999383,None,,,,,,,104.95148179998796,107.70170659999712,104.95148179998796,107.70170659999712,107.43511899998703,None,0.16418419999536127,0.3304290999949444,0.4971335000009276,0.6637170999892987,0.8303794999956153,0.9803721999924164,1.1470472999935737,1.3137195999879623,1.480322299990803,1.6469856999901822,1.7970510000013746,1.963672999991104,2.130297600000631,2.296999899990624,107.93462169999839,None,107.93462169999839,None,110.41779369999131,None,110.41779369999131,None,right,0.31992679998802487,110.41779369999131,None,110.76776099999552,None,110.76776099999552,None,right,0.18599410000024363,110.76776099999552,None,2.463623599993298,,,001,2021_Mar_17_1315,AB_pic,2020.2.10,59.98857817329337,
AB,lag1,1,3,4,0.10667599999999994,0.05,0.2199999999999998,ramp,,,,,0,14,14,14,,,,,,,cocktailshrimp02.jpg,blender.jpg,shovel01.jpg,banjo.jpg,dolphin01.jpg,hammerheadshark.jpg,chair.jpg,ant.jpg,tortoise01.jpg,boxingglove01.jpg,trophy01.jpg,triangle.jpg,candycane01a.jpg,africanelephant.jpg,xylophone.jpg,cashregister01.jpg,acousticguitar02.jpg,,,,,,,0,0,6,,,,,.\resources\banjo.jpg,,,1,,,,,,,,,1,,,,,,,,,117.13410890999076,None,None,117.13410890999076,None,,,,,,,111.00105899998744,113.75132359999407,111.00105899998744,113.75132359999407,113.48466219998954,None,0.1649211999902036,0.31449639999482315,0.4811153999908129,0.6310804999957327,0.7977298999903724,0.9477483999944525,1.0977273999887984,,,,,,,,113.9842498999933,None,113.9842498999933,None,115.10083419999864,None,115.10083419999864,None,right,1.0928602000058163,115.10083419999864,None,116.2341207999998,None,116.2341207999998,None,right,0.8796860000002198,116.2341207999998,None,,,,001,2021_Mar_17_1315,AB_pic,2020.2.10,59.98857817329337,
AB,lag6,6,5,11,0.1,0.05,0.2,main,,,,,0,15,15,15,,,,,,,cashregister01.jpg,penguin.jpg,candycane01a.jpg,eyepatch.jpg,blender.jpg,noparkingsign.jpg,africanelephant.jpg,hammerheadshark.jpg,moon.jpg,birdfeeder.jpg,xylophone.jpg,ant.jpg,alligator.jpg,chair.jpg,trophy01.jpg,pingpongtable.jpg,banjo.jpg,,,,,,,1,1,13,,,,,.\resources\xylophone.jpg,,,1,,,,,,,,,1,,,,,,,,,124.13358200999501,None,None,124.13358200999501,None,,,,,,,117.15072059999511,119.90058109999518,117.15072059999511,119.90058109999518,119.63393299999007,None,0.16450210000039078,0.31451599999854807,0.46449280000524595,0.614484599995194,0.7644623000087449,0.9145009000058053,1.064460000008694,1.2144461999996565,1.364481099997647,1.5143784999963827,1.6643828000087524,1.8143777000077534,1.964361699996516,2.114368199996534,120.13389889999235,None,120.13389889999235,None,122.26708029999281,None,122.26708029999281,None,left,1.070722599994042,122.26708029999281,None,123.38362949999282,None,123.38362949999282,None,left,0.7300634999992326,123.38362949999282,None,,,,001,2021_Mar_17_1315,AB_pic,2020.2.10,59.98857817329337,
AB,lag1,1,5,6,0.1,0.05,0.2,main,,,,,0,16,16,16,,,,,,,moon.jpg,cocktailshrimp02.jpg,pingpongtable.jpg,eyepatch.jpg,shovel01.jpg,dolphin01.jpg,candycane01a.jpg,makiroll.jpg,trophy01.jpg,xylophone.jpg,ant.jpg,noparkingsign.jpg,flag.jpg,hammerheadshark.jpg,africanelephant.jpg,alligator.jpg,mummy.jpg,,,,,,,0,0,8,,,,,.\resources\dolphin01.jpg,,,1,,,,,,,,,0,,,,,,,,,130.34982460999453,None,None,130.34982460999453,None,,,,,,,124.15024179998727,126.90051579999272,124.15024179998727,126.90051579999272,126.63384029999725,None,0.16367280000122264,0.3136621000012383,0.4636042000056477,0.6136090000072727,0.7635952000127872,0.9136083000048529,1.0635938000050373,1.2136099000053946,1.3635448000131873,,,,,,127.13339699999779,None,127.13339699999779,None,128.51661829999648,None,128.51661829999648,None,right,1.5651776000013342,128.51661829999648,None,130.11651329998858,None,130.11651329998858,None,left,0.2132774000056088,130.11651329998858,None,,,,001,2021_Mar_17_1315,AB_pic,2020.2.10,59.98857817329337,
AB,lag5,5,3,8,0.1,0.05,0.2,main,,,,,0,17,17,17,,,,,,,xylophone.jpg,flag.jpg,dolphin01.jpg,tulip02.jpg,bow.jpg,hammerheadshark.jpg,tortoise01.jpg,chair.jpg,holdfast.jpg,cocktailshrimp02.jpg,makiroll.jpg,pingpongtable.jpg,boxingglove01.jpg,alligator.jpg,eyepatch.jpg,moon.jpg,blender.jpg,,,,,,,0,1,10,,,,,.\resources\chair.jpg,,,1,,,,,,,,,1,,,,,,,,,136.04943710999504,None,None,136.04943710999504,None,,,,,,,130.36654459999409,133.11631109999144,130.36654459999409,133.11631109999144,132.84966009999334,None,0.16444269999919925,0.3145018000068376,0.46457379999628756,0.6144173999928171,0.7644294000056107,0.9139699999941513,1.0639771999994991,1.2139361000008648,1.363965199998347,1.51391949999379,1.6639547999948263,,,,133.349650499993,None,133.349650499993,None,135.0328953999997,None,135.0328953999997,None,right,0.7768785999942338,135.0328953999997,None,135.84944089999772,None,135.84944089999772,None,left,0.1761772000027122,135.84944089999772,None,,,,001,2021_Mar_17_1315,AB_pic,2020.2.10,59.98857817329337,
AB,lag3,3,4,7,0.1,0.05,0.2,main,,,,,0,18,18,18,,,,,,,boxingglove01.jpg,dolphin01.jpg,blender.jpg,hammerheadshark.jpg,tulip02.jpg,trophy01.jpg,shovel01.jpg,candycane01a.jpg,eyepatch.jpg,penguin.jpg,bow.jpg,xylophone.jpg,mummy.jpg,triangle.jpg,moon.jpg,pingpongtable.jpg,cashregister01.jpg,,,,,,,1,0,9,,,,,.\resources\shovel01.jpg,,,1,,,,,,,,,0,,,,,,,,,142.19903670999628,None,None,142.19903670999628,None,,,,,,,136.06608949998918,138.8163429999986,136.06608949998918,138.8163429999986,138.54970279999543,None,0.16429909999715164,0.31427249999251217,0.4642769999918528,0.6142526999901747,0.7642692999943392,0.9143015000008745,1.0642497999942861,1.2142422000033548,1.364234900000156,1.5142000999912852,,,,,139.04928559999098,None,139.04928559999098,None,140.58248949999688,None,140.58248949999688,None,left,1.235196800000267,140.58248949999688,None,141.8490829999937,None,141.8490829999937,None,left,0.3286166000034427,141.8490829999937,None,,,,001,2021_Mar_17_1315,AB_pic,2020.2.10,59.98857817329337,
AB,lag2,2,5,7,0.1,0.05,0.2,main,,,,,0,19,19,19,,,,,,,mummy.jpg,xylophone.jpg,flag.jpg,cocktailshrimp02.jpg,bow.jpg,hammerheadshark.jpg,chair.jpg,tortoise01.jpg,penguin.jpg,shovel01.jpg,trophy01.jpg,birdfeeder.jpg,triangle.jpg,tulip02.jpg,cashregister01.jpg,makiroll.jpg,dolphin01.jpg,,,,,,,0,0,9,,,,,.\resources\chair.jpg,,,1,,,,,,,,,1,,,,,,,,,147.83199700998665,None,None,147.83199700998665,None,,,,,,,142.21568039999693,144.9659568999923,142.21568039999693,144.9659568999923,144.69932799998787,None,0.16414249999797903,0.3140918999997666,0.46412400000554044,0.614102500010631,0.7640955000097165,0.9140613000054145,1.0640473000094062,1.2140853000018978,1.3640574000019114,1.5140805000119144,,,,,145.19884099999035,None,145.19884099999035,None,146.73210729999118,None,146.73210729999118,None,right,0.8776399000053061,146.73210729999118,None,147.64868669999123,None,147.64868669999123,None,right,0.16095530000166036,147.64868669999123,None,,,,001,2021_Mar_17_1315,AB_pic,2020.2.10,59.98857817329337,
AB,lag4,4,3,7,0.1,0.05,0.2,main,,,,,0,20,20,20,,,,,,,ant.jpg,acousticguitar02.jpg,boxingglove01.jpg,holdfast.jpg,mummy.jpg,blender.jpg,chair.jpg,pingpongtable.jpg,tortoise01.jpg,hammerheadshark.jpg,cocktailshrimp02.jpg,africanelephant.jpg,dolphin01.jpg,bow.jpg,shovel01.jpg,penguin.jpg,triangle.jpg,,,,,,,0,0,9,,,,,.\resources\chair.jpg,,,1,,,,,,,,,1,,,,,,,,,152.7150183099904,None,None,152.7150183099904,None,,,,,,,147.8486722999951,150.59848529999726,147.8486722999951,150.59848529999726,150.33183629999985,None,0.1647227999928873,0.3147592000022996,0.46471390000078827,0.6148411999893142,0.764679799991427,0.9146775999979582,1.0646733000030508,1.2146581999986665,1.3646869999938644,1.5146219000016572,,,,,150.83179819998622,None,150.83179819998622,None,152.36503399998765,None,152.36503399998765,None,right,0.14863809999951627,152.36503399998765,None,152.54836599998816,None,152.54836599998816,None,right,0.14139409999188501,152.54836599998816,None,,,,001,2021_Mar_17_1315,AB_pic,2020.2.10,59.98857817329337,
AB,lag7,7,5,12,0.1,0.05,0.2,main,,,,,0,21,21,21,,,,,,,cashregister01.jpg,eyepatch.jpg,mummy.jpg,africanelephant.jpg,triangle.jpg,blender.jpg,trophy01.jpg,holdfast.jpg,shovel01.jpg,pingpongtable.jpg,boxingglove01.jpg,dolphin01.jpg,tulip02.jpg,xylophone.jpg,birdfeeder.jpg,cocktailshrimp02.jpg,penguin.jpg,,,,,,,0,0,14,,,,,.\resources\dolphin01.jpg,,,1,,,,,,,,,1,,,,,,,,,158.53130390998848,None,None,158.53130390998848,None,,,,,,,152.73168619998614,155.48192649999692,152.73168619998614,155.48192649999692,155.21528959998977,None,0.16463690000819042,0.31461850000778213,0.46419080000487156,0.6141964999987977,0.7641851000080351,0.9141506000014488,1.0641498000040883,1.2141970000084257,1.3641260000003967,1.5140863999986323,1.664098399996874,1.8140590999973938,1.964034200005699,2.1140274000063073,155.71481449999555,None,155.71481449999555,None,157.99809869998717,None,157.99809869998717,None,right,0.323550899993279,157.99809869998717,None,158.36465439999301,None,158.36465439999301,None,right,0.14900330000091344,158.36465439999301,None,2.2640269999974407,,,001,2021_Mar_17_1315,AB_pic,2020.2.10,59.98857817329337,
AB,lag6,6,5,11,0.1,0.05,0.2,main,,,,,0,22,22,22,,,,,,,penguin.jpg,cocktailshrimp02.jpg,ant.jpg,mummy.jpg,noparkingsign.jpg,trophy01.jpg,dolphin01.jpg,holdfast.jpg,xylophone.jpg,birdfeeder.jpg,triangle.jpg,cashregister01.jpg,banjo.jpg,moon.jpg,acousticguitar02.jpg,blender.jpg,hammerheadshark.jpg,,,,,,,0,0,13,,,,,.\resources\triangle.jpg,,,1,,,,,,,,,1,,,,,,,,,164.2809208099963,None,None,164.2809208099963,None,,,,,,,158.54796029999852,161.29778539999097,158.54796029999852,161.29778539999097,161.0311720999889,None,0.16503020000527613,0.31509130001359154,0.4650052000069991,0.6149805000022752,0.7649891000037314,0.9150029000011273,1.06497260001197,1.2149668000056408,1.3649872000096366,1.5149670000100741,1.6649395000131335,1.814924800011795,1.9649103000119794,2.1149047000071732,161.53109559998848,None,161.53109559998848,None,163.66429709999647,None,163.66429709999647,None,right,0.3854513000114821,163.66429709999647,None,164.09757199999876,None,164.09757199999876,None,right,0.15213490001042373,164.09757199999876,None,,,,001,2021_Mar_17_1315,AB_pic,2020.2.10,59.98857817329337,
AB,lag7,7,5,12,0.1,0.05,0.2,main,,,,,0,23,23,23,,,,,,,noparkingsign.jpg,acousticguitar02.jpg,dolphin01.jpg,blender.jpg,triangle.jpg,mummy.jpg,chair.jpg,boxingglove01.jpg,africanelephant.jpg,pingpongtable.jpg,banjo.jpg,shovel01.jpg,tulip02.jpg,makiroll.jpg,flag.jpg,xylophone.jpg,trophy01.jpg,,,,,,,0,0,14,,,,,.\resources\shovel01.jpg,,,1,,,,,,,,,1,,,,,,,,,170.13053580999548,None,None,170.13053580999548,None,,,,,,,164.29761199999484,167.04786779999267,164.29761199999484,167.04786779999267,166.78118319998612,None,0.16497499999240972,0.3149154999991879,0.4649149999895599,0.6148520999995526,0.7648931000003358,0.9149044999940088,1.0648747999948682,1.2148368999914965,1.3648460999975214,1.5148385999927996,1.664832700000261,1.8148300000029849,1.9648076000012225,2.1148092999937944,167.28072539999266,None,167.28072539999266,None,169.5639063999988,None,169.5639063999988,None,right,0.3817592999985209,169.5639063999988,None,169.98059909998847,None,169.98059909998847,None,right,0.13311330000578891,169.98059909998847,None,2.264791099994909,,,001,2021_Mar_17_1315,AB_pic,2020.2.10,59.98857817329337,
AB,lag5,5,3,8,0.1,0.05,0.2,main,,,,,0,24,24,24,,,,,,,cashregister01.jpg,moon.jpg,pingpongtable.jpg,acousticguitar02.jpg,chair.jpg,alligator.jpg,makiroll.jpg,candycane01a.jpg,eyepatch.jpg,birdfeeder.jpg,hammerheadshark.jpg,boxingglove01.jpg,triangle.jpg,tortoise01.jpg,xylophone.jpg,ant.jpg,penguin.jpg,,,,,,,0,0,10,,,,,.\resources\candycane01a.jpg,,,1,,,,,,,,,1,,,,,,,,,175.96347620999148,None,None,175.96347620999148,None,,,,,,,170.14723329999833,172.8974470999965,170.14723329999833,172.8974470999965,172.6308396999957,None,0.16423540000687353,0.31423660001019016,0.46423530000902247,0.6141828000108944,0.764183100007358,0.914142499997979,1.0641554000030737,1.2141513000096893,1.3641667000047164,1.5141050000092946,1.664106600001105,,,,173.13033449999057,None,173.13033449999057,None,174.8135629999888,None,174.8135629999888,None,right,0.7001889999955893,174.8135629999888,None,175.5468785999983,None,175.5468785999983,None,right,0.3907355999981519,175.5468785999983,None,,,,001,2021_Mar_17_1315,AB_pic,2020.2.10,59.98857817329337,
AB,lag3,3,3,6,0.1,0.05,0.2,main,,,,,0,25,25,25,,,,,,,acousticguitar02.jpg,pingpongtable.jpg,cocktailshrimp02.jpg,ant.jpg,holdfast.jpg,africanelephant.jpg,cashregister01.jpg,shovel01.jpg,mummy.jpg,alligator.jpg,dolphin01.jpg,boxingglove01.jpg,penguin.jpg,moon.jpg,tortoise01.jpg,hammerheadshark.jpg,flag.jpg,,,,,,,0,0,8,,,,,.\resources\africanelephant.jpg,,,1,,,,,,,,,1,,,,,,,,,180.89646420999196,None,None,180.89646420999196,None,,,,,,,175.980144199988,178.72996039999998,175.980144199988,178.72996039999998,178.46333039998717,None,0.16475519999221433,0.31474669999442995,0.4647266999963904,0.6147309999942081,0.7647180999920238,0.9147056999936467,1.0646922000014456,1.2146689999935916,1.3646762999997009,,,,,,178.96330289999605,None,178.96330289999605,None,180.34652300000016,None,180.34652300000016,None,right,0.351078800013056,180.34652300000016,None,180.7298759999976,None,180.7298759999976,None,right,0.13577359999180771,180.7298759999976,None,,,,001,2021_Mar_17_1315,AB_pic,2020.2.10,59.98857817329337,
AB,lag2,2,3,5,0.1,0.05,0.2,main,,,,,0,26,26,26,,,,,,,pingpongtable.jpg,candycane01a.jpg,shovel01.jpg,ant.jpg,penguin.jpg,tortoise01.jpg,bow.jpg,holdfast.jpg,alligator.jpg,eyepatch.jpg,xylophone.jpg,tulip02.jpg,moon.jpg,banjo.jpg,hammerheadshark.jpg,mummy.jpg,makiroll.jpg,,,,,,,1,0,7,,,,,.\resources\penguin.jpg,,,1,,,,,,,,,0,,,,,,,,,186.72942820999305,None,None,186.72942820999305,None,,,,,,,180.91319169999042,183.66339389998757,180.91319169999042,183.66339389998757,183.39676159998635,None,0.1641214000119362,0.3140810000040801,0.46419840000453405,0.6140872000105446,0.7640742000075988,0.9140605000138748,1.0640577000012854,1.2140467000135686,,,,,,,183.89628729999822,None,183.89628729999822,None,185.1295495999948,None,185.1295495999948,None,left,1.032114300003741,185.1295495999948,None,186.1961755999946,None,186.1961755999946,None,left,0.5174265999958152,186.1961755999946,None,,,,001,2021_Mar_17_1315,AB_pic,2020.2.10,59.98857817329337,
AB,lag1,1,5,6,0.1,0.05,0.2,main,,,,,0,27,27,27,,,,,,,flag.jpg,birdfeeder.jpg,acousticguitar02.jpg,cocktailshrimp02.jpg,ant.jpg,triangle.jpg,boxingglove01.jpg,moon.jpg,mummy.jpg,africanelephant.jpg,bow.jpg,trophy01.jpg,candycane01a.jpg,cashregister01.jpg,makiroll.jpg,holdfast.jpg,blender.jpg,,,,,,,0,0,8,,,,,.\resources\triangle.jpg,,,1,,,,,,,,,0,,,,,,,,,192.3623949099885,None,None,192.3623949099885,None,,,,,,,186.7461026999954,189.4963613999862,186.7461026999954,189.4963613999862,189.229708999992,None,0.16457439999794587,0.31501949999073986,0.4650280999921961,0.6145778999925824,0.7645725999900606,0.9145576999871992,1.0645446999988053,1.2145289999898523,1.3645027999882586,,,,,,189.72922099998686,None,189.72922099998686,None,191.11245399998734,None,191.11245399998734,None,right,0.9291752999997698,191.11245399998734,None,192.0790857999964,None,192.0790857999964,None,left,0.266504499988514,192.0790857999964,None,,,,001,2021_Mar_17_1315,AB_pic,2020.2.10,59.98857817329337,
AB,lag4,4,5,9,0.1,0.05,0.2,main,,,,,0,28,28,28,,,,,,,chair.jpg,noparkingsign.jpg,ant.jpg,candycane01a.jpg,cashregister01.jpg,africanelephant.jpg,triangle.jpg,eyepatch.jpg,hammerheadshark.jpg,birdfeeder.jpg,tulip02.jpg,dolphin01.jpg,moon.jpg,flag.jpg,makiroll.jpg,cocktailshrimp02.jpg,penguin.jpg,,,,,,,1,0,11,,,,,.\resources\hammerheadshark.jpg,,,1,,,,,,,,,0,,,,,,,,,199.12858110999804,None,None,199.12858110999804,None,,,,,,,192.37907139999152,195.12890139999217,192.37907139999152,195.12890139999217,194.8622553999885,None,0.16474579999339767,0.3143199999904027,0.46472789999097586,0.6147121999965748,0.7649403999967035,0.9142545999930007,1.0642110999906436,1.2142440999887185,1.3642233999999007,1.5142292999953497,1.664223599989782,1.8142449000006309,,,195.3621994999994,None,195.3621994999994,None,197.19544319999113,None,197.19544319999113,None,left,0.9822740999952657,197.19544319999113,None,198.21198279999953,None,198.21198279999953,None,left,0.9016331999882823,198.21198279999953,None,,,,001,2021_Mar_17_1315,AB_pic,2020.2.10,59.98857817329337,
AB,lag3,3,4,7,0.1,0.05,0.2,main,,,,,0,29,29,29,,,,,,,tulip02.jpg,birdfeeder.jpg,blender.jpg,africanelephant.jpg,banjo.jpg,ant.jpg,dolphin01.jpg,holdfast.jpg,noparkingsign.jpg,hammerheadshark.jpg,tortoise01.jpg,eyepatch.jpg,mummy.jpg,penguin.jpg,candycane01a.jpg,shovel01.jpg,makiroll.jpg,,,,,,,0,0,9,,,,,.\resources\dolphin01.jpg,,,1,,,,,,,,,1,,,,,,,,,204.12826110999157,None,None,204.12826110999157,None,,,,,,,199.145254499992,201.89548099999956,199.145254499992,201.89548099999956,201.62883449999208,None,0.16447499999776483,0.3144239999965066,0.46445590000075754,0.6143812999944203,0.7643317000038223,0.914375199994538,1.0643725999980234,1.2139322000002721,1.3639240999909816,1.5139162999985274,,,,,202.12839169999643,None,202.12839169999643,None,203.6616200999997,None,203.6616200999997,None,right,0.24401510000461712,203.6616200999997,None,203.92826539999805,None,203.92826539999805,None,right,0.1773613999976078,203.92826539999805,None,,,,001,2021_Mar_17_1315,AB_pic,2020.2.10,59.98857817329337,
AB,lag1,1,4,5,0.1,0.05,0.2,main,,,,,0,30,30,30,,,,,,,dolphin01.jpg,birdfeeder.jpg,chair.jpg,moon.jpg,africanelephant.jpg,banjo.jpg,pingpongtable.jpg,noparkingsign.jpg,triangle.jpg,acousticguitar02.jpg,cashregister01.jpg,alligator.jpg,tortoise01.jpg,eyepatch.jpg,cocktailshrimp02.jpg,hammerheadshark.jpg,tulip02.jpg,,,,,,,0,0,7,,,,,.\resources\africanelephant.jpg,,,1,,,,,,,,,1,,,,,,,,,208.87795071,None,None,208.87795071,None,,,,,,,204.1449205999961,206.8951442999969,204.1449205999961,206.8951442999969,206.6284605999972,None,0.1645548999949824,0.3145193999953335,0.4645604999968782,0.6145976999978302,0.7645600999967428,0.9145051999948919,1.0644862999906763,1.2140714999986812,,,,,,,207.12805529999605,None,207.12805529999605,None,208.36131369999202,None,208.36131369999202,None,right,0.3043653000058839,208.36131369999202,None,208.71129819999624,None,208.71129819999624,None,right,0.13833139999769628,208.71129819999624,None,,,,001,2021_Mar_17_1315,AB_pic,2020.2.10,59.98857817329337,
AB,lag4,4,5,9,0.1,0.05,0.2,main,,,,,0,31,31,31,,,,,,,banjo.jpg,penguin.jpg,eyepatch.jpg,chair.jpg,dolphin01.jpg,blender.jpg,acousticguitar02.jpg,makiroll.jpg,hammerheadshark.jpg,bow.jpg,triangle.jpg,moon.jpg,africanelephant.jpg,alligator.jpg,birdfeeder.jpg,pingpongtable.jpg,candycane01a.jpg,,,,,,,1,1,11,,,,,.\resources\hammerheadshark.jpg,,,1,,,,,,,,,1,,,,,,,,,214.76090081,None,None,214.76090081,None,,,,,,,208.89461019998998,211.6449350999901,208.89461019998998,211.6449350999901,211.37828999999329,None,0.16429100000823382,0.31429570000909735,0.4643178000114858,0.6142755000037141,0.7642873000004329,0.9142522000038298,1.064346300001489,1.2142910000111442,1.3642690000124276,1.5142343000043184,1.6641800000070361,1.8141956000035862,,,211.87780029998976,None,211.87780029998976,None,213.71100789999764,None,213.71100789999764,None,left,0.7946189999929629,213.71100789999764,None,214.54426319999038,None,214.54426319999038,None,left,0.19347039998683613,214.54426319999038,None,,,,001,2021_Mar_17_1315,AB_pic,2020.2.10,59.98857817329337,
AB,lag6,6,3,9,0.1,0.05,0.2,main,,,,,0,32,32,32,,,,,,,banjo.jpg,cashregister01.jpg,bow.jpg,flag.jpg,alligator.jpg,makiroll.jpg,eyepatch.jpg,tulip02.jpg,moon.jpg,africanelephant.jpg,boxingglove01.jpg,noparkingsign.jpg,acousticguitar02.jpg,xylophone.jpg,hammerheadshark.jpg,birdfeeder.jpg,tortoise01.jpg,,,,,,,1,0,11,,,,,.\resources\moon.jpg,,,1,,,,,,,,,1,,,,,,,,,220.9604987099912,None,None,220.9604987099912,None,,,,,,,214.7776026999927,217.52738999998837,214.7776026999927,217.52738999998837,217.26075119999587,None,0.16436070000054315,0.3143736999918474,0.4643972999911057,0.6143426999915391,0.7643012999906205,0.9143503999948734,1.0642861999949673,1.2142872999975225,1.364275899992208,1.5142642999999225,1.6642879999999423,1.814254199998686,,,217.76072749999003,None,217.76072749999003,None,219.59393569998792,None,219.59393569998792,None,left,0.9356811999896308,219.59393569998792,None,220.57718889998796,None,220.57718889998796,None,right,0.36837070000183303,220.57718889998796,None,,,,001,2021_Mar_17_1315,AB_pic,2020.2.10,59.98857817329337,
AB,lag2,2,3,5,0.1,0.05,0.2,main,,,,,0,33,33,33,,,,,,,banjo.jpg,shovel01.jpg,blender.jpg,africanelephant.jpg,bow.jpg,holdfast.jpg,tortoise01.jpg,eyepatch.jpg,makiroll.jpg,penguin.jpg,birdfeeder.jpg,hammerheadshark.jpg,xylophone.jpg,cocktailshrimp02.jpg,noparkingsign.jpg,cashregister01.jpg,trophy01.jpg,,,,,,,0,0,7,,,,,.\resources\bow.jpg,,,1,,,,,,,,,1,,,,,,,,,225.69352270999224,None,None,225.69352270999224,None,,,,,,,220.9771686999884,223.72742179999477,220.9771686999884,223.72742179999477,223.46079409999948,None,0.1637790000095265,0.3138158000074327,0.4638593999989098,0.6138208000047598,0.7638528000097722,0.9138088000036078,1.0637836000096286,1.2137624000024516,,,,,,,223.96033469999384,None,223.96033469999384,None,225.19356889999472,None,225.19356889999472,None,right,0.2960447000077693,225.19356889999472,None,225.5268847999978,None,225.5268847999978,None,right,0.14672410000639502,225.5268847999978,None,,,,001,2021_Mar_17_1315,AB_pic,2020.2.10,59.98857817329337,
AB,lag5,5,4,9,0.1,0.05,0.2,main,,,,,0,34,34,34,,,,,,,trophy01.jpg,triangle.jpg,birdfeeder.jpg,makiroll.jpg,boxingglove01.jpg,shovel01.jpg,noparkingsign.jpg,dolphin01.jpg,banjo.jpg,moon.jpg,eyepatch.jpg,acousticguitar02.jpg,alligator.jpg,blender.jpg,cocktailshrimp02.jpg,africanelephant.jpg,tortoise01.jpg,,,,,,,0,0,11,,,,,.\resources\banjo.jpg,,,1,,,,,,,,,1,,,,,,,,,231.10987440999014,None,None,231.10987440999014,None,,,,,,,225.71019049998722,228.4600550999894,225.71019049998722,228.4600550999894,228.19340989999182,None,0.16493369999807328,0.31491539999842644,0.4649772999982815,0.6149205999972764,0.7648735999973724,0.9148907000053441,1.0648630000068806,1.2148707000014838,1.3648238000023412,1.5148235999949975,1.664887799997814,1.8149054999958025,,,228.6933291999885,None,228.6933291999885,None,230.52660589999869,None,230.52660589999869,None,right,0.38705980000668205,230.52660589999869,None,230.9598646999948,None,230.9598646999948,None,right,0.12970689999929164,230.9598646999948,None,,,,001,2021_Mar_17_1315,AB_pic,2020.2.10,59.98857817329337,
AB,lag7,7,5,12,0.1,0.05,0.2,main,,,,,0,35,35,35,,,,,,,acousticguitar02.jpg,cashregister01.jpg,tulip02.jpg,ant.jpg,holdfast.jpg,chair.jpg,moon.jpg,mummy.jpg,shovel01.jpg,dolphin01.jpg,xylophone.jpg,banjo.jpg,pingpongtable.jpg,makiroll.jpg,blender.jpg,tortoise01.jpg,flag.jpg,,,,,,,0,0,14,,,,,.\resources\banjo.jpg,,,1,,,,,,,,,1,,,,,,,,,238.72599230999475,None,None,238.72599230999475,None,,,,,,,231.12654569999722,233.87635219999356,231.12654569999722,233.87635219999356,233.609712999998,None,0.16440789999614935,0.3143856999959098,0.46443490000092424,0.614332099998137,0.764410300005693,0.9143325000040932,1.0643494999967515,1.2143398000043817,1.364353500001016,1.5143243999918923,1.6642990999971516,1.814279099999112,1.9642663999984507,2.1142527000047266,234.10965379999834,None,234.10965379999834,None,236.39281699999992,None,236.39281699999992,None,right,0.7207666000031168,236.39281699999992,None,237.15942749999522,None,237.15942749999522,None,right,1.5461782999918796,237.15942749999522,None,2.2642550000018673,,,001,2021_Mar_17_1315,AB_pic,2020.2.10,59.98857817329337,
AB,lag5,5,5,10,0.1,0.05,0.2,main,,,,,0,36,36,36,,,,,,,noparkingsign.jpg,banjo.jpg,birdfeeder.jpg,penguin.jpg,shovel01.jpg,flag.jpg,mummy.jpg,africanelephant.jpg,eyepatch.jpg,makiroll.jpg,tulip02.jpg,hammerheadshark.jpg,alligator.jpg,moon.jpg,trophy01.jpg,chair.jpg,dolphin01.jpg,,,,,,,1,0,12,,,,,.\resources\makiroll.jpg,,,1,,,,,,,,,1,,,,,,,,,245.9422171099897,None,None,245.9422171099897,None,,,,,,,238.74266889999853,241.49248329999682,238.74266889999853,241.49248329999682,241.22664249999798,None,0.16499340000154916,0.31497370000579394,0.46496520000800956,0.6149393000087002,0.764954400001443,0.9149724000017159,1.064942400000291,1.21492009999929,1.3649202000087826,1.5149144000024535,1.6649046000093222,1.8148833000013838,1.964885300010792,,241.72580169999856,None,241.72580169999856,None,243.70900619999156,None,243.70900619999156,None,left,1.8445910000009462,243.70900619999156,None,245.5922251999873,None,245.5922251999873,None,right,0.32147450000047684,245.5922251999873,None,,,,001,2021_Mar_17_1315,AB_pic,2020.2.10,59.98857817329337,
AB,lag7,7,3,10,0.1,0.05,0.2,main,,,,,0,37,37,37,,,,,,,penguin.jpg,trophy01.jpg,pingpongtable.jpg,ant.jpg,acousticguitar02.jpg,chair.jpg,shovel01.jpg,mummy.jpg,xylophone.jpg,alligator.jpg,dolphin01.jpg,boxingglove01.jpg,makiroll.jpg,africanelephant.jpg,cashregister01.jpg,noparkingsign.jpg,holdfast.jpg,,,,,,,1,0,12,,,,,.\resources\alligator.jpg,,,1,,,,,,,,,0,,,,,,,,,254.64160180998732,None,None,254.64160180998732,None,,,,,,,245.95888659999764,248.7090896999871,245.95888659999764,248.7090896999871,248.4424064999912,None,0.16461219999473542,0.31414139999833424,0.4641535999980988,0.6140816999977687,0.7641039000009187,0.9140880999912042,1.0641222999984166,1.2141052999941166,1.3640988999977708,1.5141390999924624,1.664067999998224,1.814098599992576,1.9640747999947052,,248.94199369999114,None,248.94199369999114,None,250.92519289998745,None,250.92519289998745,None,left,0.7003813000046648,250.92519289998745,None,251.6584809999913,None,251.6584809999913,None,left,2.9671205000049667,251.6584809999913,None,,,,001,2021_Mar_17_1315,AB_pic,2020.2.10,59.98857817329337,
AB,lag4,4,3,7,0.1,0.05,0.2,main,,,,,0,38,38,38,,,,,,,dolphin01.jpg,triangle.jpg,trophy01.jpg,moon.jpg,blender.jpg,birdfeeder.jpg,mummy.jpg,acousticguitar02.jpg,banjo.jpg,tortoise01.jpg,penguin.jpg,hammerheadshark.jpg,tulip02.jpg,chair.jpg,eyepatch.jpg,cocktailshrimp02.jpg,candycane01a.jpg,,,,,,,0,0,9,,,,,.\resources\mummy.jpg,,,1,,,,,,,,,1,,,,,,,,,259.6746254099882,None,None,259.6746254099882,None,,,,,,,254.6582853999862,257.40812679998635,254.6582853999862,257.40812679998635,257.14146799998707,None,0.16463909999583848,0.3146430000051623,0.4646128000022145,0.6146040000021458,0.7645997000072384,0.9145907000056468,1.0645795000018552,1.2145671000034781,1.3645596999995178,1.5145069999998668,,,,,257.641443799992,None,257.641443799992,None,259.1746793999919,None,259.1746793999919,None,right,0.29885429999558255,259.1746793999919,None,259.50798149999173,None,259.50798149999173,None,right,0.1496495000028517,259.50798149999173,None,,,,001,2021_Mar_17_1315,AB_pic,2020.2.10,59.98857817329337,
AB,lag3,3,5,8,0.1,0.05,0.2,main,,,,,0,39,39,39,,,,,,,mummy.jpg,bow.jpg,eyepatch.jpg,birdfeeder.jpg,shovel01.jpg,banjo.jpg,cocktailshrimp02.jpg,holdfast.jpg,makiroll.jpg,hammerheadshark.jpg,penguin.jpg,tortoise01.jpg,xylophone.jpg,blender.jpg,dolphin01.jpg,tulip02.jpg,triangle.jpg,,,,,,,0,0,10,,,,,.\resources\holdfast.jpg,,,1,,,,,,,,,1,,,,,,,,,265.0906944099872,None,None,265.0906944099872,None,,,,,,,259.69129579998844,262.4413072999887,259.69129579998844,262.4413072999887,262.17448239999067,None,0.1648769000021275,0.3148843999952078,0.4648183999961475,0.6148258000030182,0.7648422000056598,0.9148320999956923,1.0648110000038287,1.214802000002237,1.3648019999964163,1.5147786000015913,1.6647692999977153,,,,262.67446209999616,None,262.67446209999616,None,264.3576935999881,None,264.3576935999881,None,right,0.5398960000020452,264.3576935999881,None,264.9240325999999,None,264.9240325999999,None,right,0.14954040000156965,264.9240325999999,None,,,,001,2021_Mar_17_1315,AB_pic,2020.2.10,59.98857817329337,
AB,lag2,2,4,6,0.1,0.05,0.2,main,,,,,0,40,40,40,,,,,,,shovel01.jpg,acousticguitar02.jpg,cashregister01.jpg,moon.jpg,bow.jpg,holdfast.jpg,ant.jpg,hammerheadshark.jpg,mummy.jpg,tulip02.jpg,flag.jpg,alligator.jpg,triangle.jpg,candycane01a.jpg,chair.jpg,noparkingsign.jpg,cocktailshrimp02.jpg,,,,,,,0,0,8,,,,,.\resources\holdfast.jpg,,,1,,,,,,,,,1,,,,,,,,,270.1403799099964,None,None,270.1403799099964,None,,,,,,,265.090689699995,267.8407451999956,265.090689699995,267.8407451999956,267.59079079999356,None,0.16508750000502914,0.3150752000074135,0.4650705999956699,0.6151126000040676,0.765053800001624,0.9150548000034178,1.0650315999955637,1.2147961000009673,1.364840299997013,,,,,,268.09072119998746,None,268.09072119998746,None,269.4570939999976,None,269.4570939999976,None,right,0.47247649999917485,269.4570939999976,None,269.95703539998794,None,269.95703539998794,None,right,0.16451400000369176,269.95703539998794,None,,,,001,2021_Mar_17_1315,AB_pic,2020.2.10,59.98857817329337,
AB,lag1,1,4,5,0.1,0.05,0.2,main,,,,,0,41,41,41,,,,,,,cocktailshrimp02.jpg,flag.jpg,moon.jpg,banjo.jpg,makiroll.jpg,holdfast.jpg,hammerheadshark.jpg,bow.jpg,africanelephant.jpg,eyepatch.jpg,boxingglove01.jpg,birdfeeder.jpg,dolphin01.jpg,shovel01.jpg,acousticguitar02.jpg,tulip02.jpg,xylophone.jpg,,,,,,,0,1,7,,,,,.\resources\makiroll.jpg,,,1,,,,,,,,,1,,,,,,,,,276.3899493099918,None,None,276.3899493099918,None,,,,,,,270.14033789999667,272.8904515999893,270.14033789999667,272.8904515999893,272.6403912999958,None,0.1644808999990346,0.3144629000016721,0.4644440000120085,0.614470500004245,0.7644572999997763,0.9144816000043647,1.0642298000020673,1.2141676000028383,,,,,,,273.1404057999898,None,273.1404057999898,None,274.35674519999884,None,274.35674519999884,None,right,1.7568188000004739,274.35674519999884,None,276.1399679999886,None,276.1399679999886,None,left,0.22157790001074318,276.1399679999886,None,,,,001,2021_Mar_17_1315,AB_pic,2020.2.10,59.98857817329337,
AB,lag6,6,5,11,0.1,0.05,0.2,main,,,,,0,42,42,42,,,,,,,holdfast.jpg,candycane01a.jpg,moon.jpg,birdfeeder.jpg,dolphin01.jpg,flag.jpg,shovel01.jpg,xylophone.jpg,alligator.jpg,cashregister01.jpg,makiroll.jpg,tulip02.jpg,mummy.jpg,banjo.jpg,chair.jpg,noparkingsign.jpg,triangle.jpg,,,,,,,0,0,13,,,,,.\resources\makiroll.jpg,,,1,,,,,,,,,1,,,,,,,,,282.0395669099991,None,None,282.0395669099991,None,,,,,,,276.3899498999963,279.13999159999366,276.3899498999963,279.13999159999366,278.8900072999968,None,0.1640979000076186,0.31412160000763834,0.4640749000100186,0.6141235000104643,0.764092100012931,0.9138466000003973,1.0639334000006784,1.2138241000066046,1.3637895000138087,1.5138115000008838,1.6638019000092754,1.8137823000142816,1.9637802000070224,2.1137535000016214,279.38997910000035,None,279.38997910000035,None,281.5062498999905,None,281.5062498999905,None,right,0.35138009999354836,281.5062498999905,None,281.8729161999945,None,281.8729161999945,None,right,0.1445878999948036,281.8729161999945,None,,,,001,2021_Mar_17_1315,AB_pic,2020.2.10,59.98857817329337,
AB,lag5,5,5,10,0.1,0.05,0.2,main,,,,,0,43,43,43,,,,,,,banjo.jpg,pingpongtable.jpg,blender.jpg,boxingglove01.jpg,hammerheadshark.jpg,chair.jpg,africanelephant.jpg,tortoise01.jpg,moon.jpg,eyepatch.jpg,tulip02.jpg,birdfeeder.jpg,cocktailshrimp02.jpg,cashregister01.jpg,makiroll.jpg,shovel01.jpg,alligator.jpg,,,,,,,0,0,12,,,,,.\resources\eyepatch.jpg,,,1,,,,,,,,,0,,,,,,,,,288.6224774099857,None,None,288.6224774099857,None,,,,,,,282.0395683999959,284.7896226999874,282.0395683999959,284.7896226999874,284.53963659999135,None,0.16447540000081062,0.3144930000125896,0.46447550000448246,0.614465000006021,0.7644605000095908,0.9144499000103679,1.0644335000106366,1.2141879000118934,1.364205600009882,1.514178900004481,1.664169200012111,1.8141611000028206,1.9641648000106215,,285.0396216999943,None,285.0396216999943,None,287.0059179999953,None,287.0059179999953,None,right,1.395604999997886,287.0059179999953,None,288.4224822999968,None,288.4224822999968,None,left,0.17107129999203607,288.4224822999968,None,,,,001,2021_Mar_17_1315,AB_pic,2020.2.10,59.98857817329337,
AB,lag7,7,5,12,0.1,0.05,0.2,main,,,,,0,44,44,44,,,,,,,dolphin01.jpg,candycane01a.jpg,tortoise01.jpg,blender.jpg,ant.jpg,alligator.jpg,tulip02.jpg,cashregister01.jpg,boxingglove01.jpg,penguin.jpg,hammerheadshark.jpg,cocktailshrimp02.jpg,shovel01.jpg,africanelephant.jpg,pingpongtable.jpg,bow.jpg,chair.jpg,,,,,,,1,0,14,,,,,.\resources\cocktailshrimp02.jpg,,,1,,,,,,,,,0,,,,,,,,,295.2553679099976,None,None,295.2553679099976,None,,,,,,,288.6224666999915,291.3725102999888,288.6224666999915,291.3725102999888,291.12250559999666,None,0.1642913999967277,0.3142822000081651,0.4642926000087755,0.61424110000371,0.7642571000033058,0.9142442000011215,1.0642354000010528,1.2142187999997986,1.3642130000080215,1.5142108000000007,1.6639661000081105,1.8139630000077887,1.963936600004672,2.1139256000024034,291.6225312999886,None,291.6225312999886,None,293.88879339999403,None,293.88879339999403,None,left,0.6168710999918403,293.88879339999403,None,294.5220873999933,None,294.5220873999933,None,left,0.7036219000001438,294.5220873999933,None,2.2639225000020815,,,001,2021_Mar_17_1315,AB_pic,2020.2.10,59.98857817329337,
AB,lag3,3,4,7,0.1,0.05,0.2,main,,,,,0,45,45,45,,,,,,,blender.jpg,banjo.jpg,candycane01a.jpg,mummy.jpg,tortoise01.jpg,triangle.jpg,dolphin01.jpg,holdfast.jpg,penguin.jpg,xylophone.jpg,eyepatch.jpg,birdfeeder.jpg,ant.jpg,alligator.jpg,acousticguitar02.jpg,pingpongtable.jpg,shovel01.jpg,,,,,,,0,1,9,,,,,.\resources\dolphin01.jpg,,,1,,,,,,,,,1,,,,,,,,,300.97164380998873,None,None,300.97164380998873,None,,,,,,,295.2553706999897,298.0054530999914,295.2553706999897,298.0054530999914,297.75543419999303,None,0.16479750000871718,0.3148226000048453,0.4647665000084089,0.6147692000085954,0.7647571999987122,0.9147537000098964,1.0644881000043824,1.214505600000848,1.3645086000033189,1.5145536000054562,,,,,298.25540749999345,None,298.25540749999345,None,299.7717780999956,None,299.7717780999956,None,right,0.9657826000038767,299.7717780999956,None,300.7550082999951,None,300.7550082999951,None,left,0.19049929999164306,300.7550082999951,None,,,,001,2021_Mar_17_1315,AB_pic,2020.2.10,59.98857817329337,
AB,lag2,2,5,7,0.1,0.05,0.2,main,,,,,0,46,46,46,,,,,,,shovel01.jpg,noparkingsign.jpg,bow.jpg,birdfeeder.jpg,mummy.jpg,cocktailshrimp02.jpg,blender.jpg,triangle.jpg,moon.jpg,holdfast.jpg,alligator.jpg,banjo.jpg,chair.jpg,acousticguitar02.jpg,africanelephant.jpg,eyepatch.jpg,hammerheadshark.jpg,,,,,,,0,0,9,,,,,.\resources\blender.jpg,,,1,,,,,,,,,1,,,,,,,,,306.00466180999064,None,None,306.00466180999064,None,,,,,,,300.9716660999984,303.72169429999485,300.9716660999984,303.72169429999485,303.4717440999957,None,0.16462660000252072,0.3146441999997478,0.46458859999256674,0.6145736000034958,0.7645571000030031,0.9145586999948137,1.0645946000004187,1.2145929999969667,1.3643246999999974,1.5143684999929974,,,,,303.97169039999426,None,303.97169039999426,None,305.4880456999963,None,305.4880456999963,None,right,0.3294610000011744,305.4880456999963,None,305.83800359998713,None,305.83800359998713,None,right,0.1475423999945633,305.83800359998713,None,,,,001,2021_Mar_17_1315,AB_pic,2020.2.10,59.98857817329337,
AB,lag6,6,5,11,0.1,0.05,0.2,main,,,,,0,47,47,47,,,,,,,cocktailshrimp02.jpg,noparkingsign.jpg,bow.jpg,triangle.jpg,tulip02.jpg,makiroll.jpg,moon.jpg,eyepatch.jpg,blender.jpg,penguin.jpg,africanelephant.jpg,banjo.jpg,cashregister01.jpg,pingpongtable.jpg,flag.jpg,chair.jpg,xylophone.jpg,,,,,,,0,0,13,,,,,.\resources\africanelephant.jpg,,,1,,,,,,,,,1,,,,,,,,,311.5544816099893,None,None,311.5544816099893,None,,,,,,,306.00466289999895,308.7549277999933,306.00466289999895,308.7549277999933,308.5049309999886,None,0.16491059999680147,0.3149332000029972,0.4648977000033483,0.6148943000007421,0.7648662999999942,0.9148759999952745,1.0648523999989266,1.214580300002126,1.3645676000014646,1.5145749999937834,1.6645431999932043,1.8145955999934813,1.9645371999940835,2.114530199993169,309.00489909999305,None,309.00489909999305,None,311.12116839998635,None,311.12116839998635,None,right,0.24034870001196396,311.12116839998635,None,311.38778789999196,None,311.38778789999196,None,right,0.1497935000079451,311.38778789999196,None,,,,001,2021_Mar_17_1315,AB_pic,2020.2.10,59.98857817329337,
AB,lag1,1,4,5,0.1,0.05,0.2,main,,,,,0,48,48,48,,,,,,,cocktailshrimp02.jpg,boxingglove01.jpg,bow.jpg,candycane01a.jpg,xylophone.jpg,cashregister01.jpg,africanelephant.jpg,trophy01.jpg,holdfast.jpg,penguin.jpg,hammerheadshark.jpg,acousticguitar02.jpg,tulip02.jpg,eyepatch.jpg,dolphin01.jpg,alligator.jpg,makiroll.jpg,,,,,,,0,0,7,,,,,.\resources\xylophone.jpg,,,1,,,,,,,,,1,,,,,,,,,316.4875568099989,None,None,316.4875568099989,None,,,,,,,311.57115609999164,314.32138339999074,311.57115609999164,314.32138339999074,314.05433059998904,None,0.16427209999528714,0.31416259999969043,0.46418439999979455,0.614138399992953,0.7637677000020631,0.9136982999916654,1.0637160000042059,1.2137082999979611,,,,,,,314.55430169998726,None,314.55430169998726,None,315.7876205999928,None,315.7876205999928,None,right,0.4778950000036275,315.7876205999928,None,316.30422259999614,None,316.30422259999614,None,right,0.1533072999882279,316.30422259999614,None,,,,001,2021_Mar_17_1315,AB_pic,2020.2.10,59.98857817329337,
AB,lag4,4,3,7,0.1,0.05,0.2,main,,,,,0,49,49,49,,,,,,,africanelephant.jpg,cashregister01.jpg,penguin.jpg,birdfeeder.jpg,flag.jpg,holdfast.jpg,ant.jpg,tulip02.jpg,boxingglove01.jpg,eyepatch.jpg,chair.jpg,blender.jpg,mummy.jpg,trophy01.jpg,shovel01.jpg,cocktailshrimp02.jpg,acousticguitar02.jpg,,,,,,,0,1,9,,,,,.\resources\ant.jpg,,,1,,,,,,,,,1,,,,,,,,,322.286915309992,None,None,322.286915309992,None,,,,,,,316.50421979998646,319.25407519999135,316.50421979998646,319.25407519999135,318.9874206999957,None,0.16425170000002254,0.31423479999648407,0.464245099996333,0.6142511000070954,0.7642410999978893,0.9142142000055173,1.064186100004008,1.2141758000070695,1.3641659999993863,1.5141658000065945,,,,,319.4873771999992,None,319.4873771999992,None,321.0206357999996,None,321.0206357999996,None,right,1.1088508000102593,321.0206357999996,None,322.1535988999967,None,322.1535988999967,None,left,0.10417259999667294,322.1535988999967,None,,,,001,2021_Mar_17_1315,AB_pic,2020.2.10,59.98857817329337,
AB,lag3,3,4,7,0.1,0.05,0.2,main,,,,,0,50,50,50,,,,,,,mummy.jpg,dolphin01.jpg,shovel01.jpg,eyepatch.jpg,moon.jpg,trophy01.jpg,boxingglove01.jpg,makiroll.jpg,holdfast.jpg,alligator.jpg,cashregister01.jpg,africanelephant.jpg,chair.jpg,blender.jpg,candycane01a.jpg,tortoise01.jpg,bow.jpg,,,,,,,1,0,9,,,,,.\resources\boxingglove01.jpg,,,1,,,,,,,,,1,,,,,,,,,327.96999940999666,None,None,327.96999940999666,None,,,,,,,322.28692919999594,325.03700079998816,322.28692919999594,325.03700079998816,324.7869890999864,None,0.16446489999361802,0.3144120000069961,0.4643960999965202,0.6143981000059284,0.7644473999971524,0.9143506999971578,1.0641364000039175,1.2141283999953885,1.3641281000018353,1.5141227999993134,,,,,325.2869580999977,None,325.2869580999977,None,326.8033013999957,None,326.8033013999957,None,left,0.9742340999946464,326.8033013999957,None,327.80323159998807,None,327.80323159998807,None,right,0.14228079999156762,327.80323159998807,None,,,,001,2021_Mar_17_1315,AB_pic,2020.2.10,59.98857817329337,
AB,lag7,7,5,12,0.1,0.05,0.2,main,,,,,0,51,51,51,,,,,,,moon.jpg,tortoise01.jpg,candycane01a.jpg,dolphin01.jpg,bow.jpg,shovel01.jpg,eyepatch.jpg,tulip02.jpg,acousticguitar02.jpg,hammerheadshark.jpg,makiroll.jpg,boxingglove01.jpg,holdfast.jpg,africanelephant.jpg,cocktailshrimp02.jpg,banjo.jpg,pingpongtable.jpg,,,,,,,0,0,14,,,,,.\resources\boxingglove01.jpg,,,1,,,,,,,,,1,,,,,,,,,333.75283031,None,None,333.75283031,None,,,,,,,327.9698587999883,330.7199171999964,327.9698587999883,330.7199171999964,330.4699808999867,None,0.16489509999519214,0.3148679000005359,0.46491330000571907,0.6148436999937985,0.764852799999062,0.914836900003138,1.0648294999991776,1.2149097000074107,1.3646259999950416,1.5145999999949709,1.6645733000041218,1.8145578999974532,1.9645569999993313,2.1145232999988366,330.96990349999396,None,330.96990349999396,None,333.2362076999998,None,333.2362076999998,None,right,0.3173447000008309,333.2362076999998,None,333.56951209998806,None,333.56951209998806,None,right,0.1680219000118086,333.56951209998806,None,2.2645345000055386,,,001,2021_Mar_17_1315,AB_pic,2020.2.10,59.98857817329337,
AB,lag1,1,5,6,0.1,0.05,0.2,main,,,,,0,52,52,52,,,,,,,africanelephant.jpg,boxingglove01.jpg,eyepatch.jpg,cashregister01.jpg,dolphin01.jpg,xylophone.jpg,noparkingsign.jpg,tortoise01.jpg,banjo.jpg,trophy01.jpg,hammerheadshark.jpg,alligator.jpg,ant.jpg,makiroll.jpg,shovel01.jpg,mummy.jpg,acousticguitar02.jpg,,,,,,,0,0,8,,,,,.\resources\xylophone.jpg,,,1,,,,,,,,,0,,,,,,,,,339.5357851099863,None,None,339.5357851099863,None,,,,,,,333.75283519999357,336.5028830999945,333.75283519999357,336.5028830999945,336.25289749998774,None,0.16486960000474937,0.31487500001094304,0.46485870001197327,0.6148551000078442,0.7649017000076128,0.914899700001115,1.064808200011612,1.2148102000064682,1.3648032000055537,,,,,,336.75285049999366,None,336.75285049999366,None,338.11945139999443,None,338.11945139999443,None,right,1.1061620000109542,338.11945139999443,None,339.2524776999926,None,339.2524776999926,None,left,0.26104329999361653,339.2524776999926,None,,,,001,2021_Mar_17_1315,AB_pic,2020.2.10,59.98857817329337,
AB,lag4,4,4,8,0.1,0.05,0.2,main,,,,,0,53,53,53,,,,,,,dolphin01.jpg,moon.jpg,blender.jpg,ant.jpg,boxingglove01.jpg,chair.jpg,makiroll.jpg,tulip02.jpg,triangle.jpg,noparkingsign.jpg,penguin.jpg,tortoise01.jpg,pingpongtable.jpg,birdfeeder.jpg,trophy01.jpg,shovel01.jpg,banjo.jpg,,,,,,,0,1,10,,,,,.\resources\tulip02.jpg,,,1,,,,,,,,,1,,,,,,,,,345.33537380998604,None,None,345.33537380998604,None,,,,,,,339.53575309998996,342.28583549999166,339.53575309998996,342.28583549999166,342.0358809999889,None,0.164726500006509,0.3147867000079714,0.46471960000053514,0.6147870999993756,0.7646875000064028,0.9147170000069309,1.0646662000071956,1.214670900008059,1.3646707000007154,1.5146684000064852,1.6647100999980466,,,,342.5357910999883,None,342.5357910999883,None,344.2021509999904,None,344.2021509999904,None,right,0.8793694000050891,344.2021509999904,None,345.10209029998805,None,345.10209029998805,None,left,0.2033703999913996,345.10209029998805,None,,,,001,2021_Mar_17_1315,AB_pic,2020.2.10,59.98857817329337,
AB,lag6,6,5,11,0.1,0.05,0.2,main,,,,,0,54,54,54,,,,,,,flag.jpg,tulip02.jpg,moon.jpg,blender.jpg,mummy.jpg,alligator.jpg,penguin.jpg,triangle.jpg,eyepatch.jpg,holdfast.jpg,candycane01a.jpg,africanelephant.jpg,acousticguitar02.jpg,cocktailshrimp02.jpg,xylophone.jpg,dolphin01.jpg,pingpongtable.jpg,,,,,,,0,1,13,,,,,.\resources\candycane01a.jpg,,,1,,,,,,,,,1,,,,,,,,,351.48504480999253,None,None,351.48504480999253,None,,,,,,,345.33540159999393,348.08548479998717,345.33540159999393,348.08548479998717,347.83546529999876,None,0.16473729998688214,0.31465539999771863,0.4646395999880042,0.6146311999909813,0.7646999999997206,0.9143910999991931,1.0643849999905797,1.2143661999871256,1.3643603999953484,1.5143465000001015,1.66433379999944,1.814320299992687,1.9643431999866152,2.114388499991037,348.33543059999647,None,348.33543059999647,None,350.4517954999901,None,350.4517954999901,None,right,0.8297332999936771,350.4517954999901,None,351.3017165999918,None,351.3017165999918,None,left,0.16433580000011716,351.3017165999918,None,,,,001,2021_Mar_17_1315,AB_pic,2020.2.10,59.98857817329337,
AB,lag2,2,4,6,0.1,0.05,0.2,main,,,,,0,55,55,55,,,,,,,cashregister01.jpg,chair.jpg,alligator.jpg,candycane01a.jpg,holdfast.jpg,banjo.jpg,moon.jpg,flag.jpg,dolphin01.jpg,penguin.jpg,acousticguitar02.jpg,triangle.jpg,birdfeeder.jpg,eyepatch.jpg,shovel01.jpg,boxingglove01.jpg,africanelephant.jpg,,,,,,,0,0,8,,,,,.\resources\banjo.jpg,,,1,,,,,,,,,1,,,,,,,,,356.551328809993,None,None,356.551328809993,None,,,,,,,351.48501089999627,354.2350329999899,351.48501089999627,354.2350329999899,353.985053299999,None,0.16410129998985212,0.3141152000025613,0.4640633999952115,0.6140675999922678,0.7638222999958089,0.9138361999939661,1.0637819999974454,1.213778099991032,1.3637979999912204,,,,,,354.4850373999943,None,354.4850373999943,None,355.85140949999914,None,355.85140949999914,None,right,0.4543682999938028,355.85140949999914,None,356.33467889999156,None,356.33467889999156,None,right,0.18687210000643972,356.33467889999156,None,,,,001,2021_Mar_17_1315,AB_pic,2020.2.10,59.98857817329337,
AB,lag5,5,4,9,0.1,0.05,0.2,main,,,,,0,56,56,56,,,,,,,xylophone.jpg,noparkingsign.jpg,pingpongtable.jpg,tulip02.jpg,ant.jpg,triangle.jpg,penguin.jpg,holdfast.jpg,eyepatch.jpg,hammerheadshark.jpg,banjo.jpg,moon.jpg,dolphin01.jpg,acousticguitar02.jpg,flag.jpg,tortoise01.jpg,shovel01.jpg,,,,,,,0,1,11,,,,,.\resources\eyepatch.jpg,,,1,,,,,,,,,1,,,,,,,,,362.2009968099912,None,None,362.2009968099912,None,,,,,,,356.56799859998864,359.3180491999956,356.56799859998864,359.3180491999956,359.0513887999987,None,0.16450179999810643,0.3145287999941502,0.46451710000110324,0.6145086999895284,0.7641954999999143,0.9142313999909675,1.0642079999961425,1.2142448999948101,1.3641817000025185,1.5142173999920487,1.6641622000024654,1.8142022999963956,,,359.5513614999945,None,359.5513614999945,None,361.3677097999898,None,361.3677097999898,None,right,0.609795899988967,361.3677097999898,None,362.00100149998616,None,362.00100149998616,None,left,0.17650359999970533,362.00100149998616,None,,,,001,2021_Mar_17_1315,AB_pic,2020.2.10,59.98857817329337,
AB,lag2,2,3,5,0.1,0.05,0.2,main,,,,,0,57,57,57,,,,,,,chair.jpg,birdfeeder.jpg,moon.jpg,triangle.jpg,acousticguitar02.jpg,hammerheadshark.jpg,xylophone.jpg,makiroll.jpg,alligator.jpg,boxingglove01.jpg,flag.jpg,penguin.jpg,trophy01.jpg,dolphin01.jpg,tortoise01.jpg,tulip02.jpg,noparkingsign.jpg,,,,,,,0,0,7,,,,,.\resources\acousticguitar02.jpg,,,1,,,,,,,,,1,,,,,,,,,366.96747660999534,None,None,366.96747660999534,None,,,,,,,362.20096279999416,364.9512056999956,362.20096279999416,364.9512056999956,364.70124749999377,None,0.16419060000043828,0.3142517000087537,0.4642337999976007,0.6141563999990467,0.7641514999995707,0.9142202000075486,1.0638656999944942,1.2138121000025421,,,,,,,365.2011616999953,None,365.2011616999953,None,366.41751809998823,None,366.41751809998823,None,right,0.3520790000038687,366.41751809998823,None,366.81746769999154,None,366.81746769999154,None,right,0.1281606999982614,366.81746769999154,None,,,,001,2021_Mar_17_1315,AB_pic,2020.2.10,59.98857817329337,
AB,lag6,6,5,11,0.1,0.05,0.2,main,,,,,0,58,58,58,,,,,,,bow.jpg,flag.jpg,cashregister01.jpg,eyepatch.jpg,pingpongtable.jpg,africanelephant.jpg,acousticguitar02.jpg,ant.jpg,banjo.jpg,hammerheadshark.jpg,dolphin01.jpg,tortoise01.jpg,noparkingsign.jpg,blender.jpg,holdfast.jpg,cocktailshrimp02.jpg,tulip02.jpg,,,,,,,0,0,13,,,,,.\resources\dolphin01.jpg,,,1,,,,,,,,,1,,,,,,,,,372.5672111999884,None,space,372.5672111999884,None,,,,,,,366.98410729999887,369.7344112999999,366.98410729999887,369.7344112999999,369.4678117000003,None,0.16412159999890719,0.3136895000061486,0.46367369999643415,0.6136740999936592,0.7636580999969738,0.9136531999974977,1.0636512000055518,1.2136602999962633,1.3636260000057518,1.5136542999971425,1.6636055999988457,1.81359330000123,1.9636062999925343,2.11362889999873,369.9673189999885,None,369.9673189999885,None,372.1005652999884,None,372.1005652999884,None,right,0.1810166999930516,372.1005652999884,None,372.3172208999895,None,372.3172208999895,None,right,0.17243500000040513,372.3172208999895,None,,11.698325200006366,,001,2021_Mar_17_1315,AB_pic,2020.2.10,59.98857817329337,
AB,lag7,7,4,11,0.1,0.05,0.2,main,,,,,0,59,59,59,,,,,,,alligator.jpg,triangle.jpg,holdfast.jpg,noparkingsign.jpg,chair.jpg,hammerheadshark.jpg,cocktailshrimp02.jpg,tortoise01.jpg,acousticguitar02.jpg,bow.jpg,birdfeeder.jpg,flag.jpg,dolphin01.jpg,blender.jpg,penguin.jpg,banjo.jpg,boxingglove01.jpg,,,,,,,0,0,13,,,,,.\resources\birdfeeder.jpg,,,1,,,,,,,,,1,,,,,,,,,389.9160306099977,None,None,389.9160306099977,None,,,,,,,384.31693950000044,387.0662439999869,384.31693950000044,387.0662439999869,386.79959459998645,None,0.16443119999894407,0.31439749999844935,0.46437269999296404,0.6143771999923047,0.7643642000039108,0.9143516000040108,1.064346500003012,1.2143249999935506,1.3643273999914527,1.5143704999936745,1.6643076000036672,1.814295399992261,1.9642927999957465,2.1143040000024484,387.2995608999918,None,387.2995608999918,None,389.43293349999294,None,389.43293349999294,None,right,0.312549800000852,389.43293349999294,None,389.7827139999863,None,389.7827139999863,None,right,0.1147894999885466,389.7827139999863,None,,,,001,2021_Mar_17_1315,AB_pic,2020.2.10,59.98857817329337,
AB,lag5,5,3,8,0.1,0.05,0.2,main,,,,,0,60,60,60,,,,,,,shovel01.jpg,trophy01.jpg,hammerheadshark.jpg,noparkingsign.jpg,banjo.jpg,tortoise01.jpg,birdfeeder.jpg,acousticguitar02.jpg,cocktailshrimp02.jpg,eyepatch.jpg,holdfast.jpg,moon.jpg,boxingglove01.jpg,africanelephant.jpg,ant.jpg,mummy.jpg,cashregister01.jpg,,,,,,,0,0,10,,,,,.\resources\acousticguitar02.jpg,,,1,,,,,,,,,1,,,,,,,,,395.63232860999705,None,None,395.63232860999705,None,,,,,,,389.9326973999996,392.68255499999213,389.9326973999996,392.68255499999213,392.41586069999903,None,0.16483900000457652,0.314857999997912,0.4648141000070609,0.6147775999997975,0.7648275000101421,0.9147499000100652,1.06480819999706,1.2148008000076516,1.3647292000096058,1.5147158000036143,1.6647832000016933,,,,392.9158354999963,None,392.9158354999963,None,394.5990611999878,None,394.5990611999878,None,right,0.6186292999918805,394.5990611999878,None,395.2656782999984,None,395.2656782999984,None,right,0.34390979999443516,395.2656782999984,None,,,,001,2021_Mar_17_1315,AB_pic,2020.2.10,59.98857817329337,
AB,lag3,3,5,8,0.1,0.05,0.2,main,,,,,0,61,61,61,,,,,,,acousticguitar02.jpg,dolphin01.jpg,cashregister01.jpg,candycane01a.jpg,pingpongtable.jpg,bow.jpg,shovel01.jpg,blender.jpg,holdfast.jpg,noparkingsign.jpg,tortoise01.jpg,hammerheadshark.jpg,moon.jpg,eyepatch.jpg,alligator.jpg,trophy01.jpg,tulip02.jpg,,,,,,,0,1,10,,,,,.\resources\blender.jpg,,,1,,,,,,,,,1,,,,,,,,,401.431974409995,None,None,401.431974409995,None,,,,,,,395.6489947999944,398.39880459998676,395.6489947999944,398.39880459998676,398.1321958999906,None,0.16345239999645855,0.31350750000274274,0.4634602000005543,0.6134248000016669,0.7634201000037137,0.9134641999989981,1.0634556000004523,1.2134072999906493,1.363371699990239,1.513363299993216,1.6633612000005087,,,,398.6487905999966,None,398.6487905999966,None,400.3153647999861,None,400.3153647999861,None,right,0.7260959999985062,400.3153647999861,None,401.0819688999909,None,401.0819688999909,None,left,0.327631799998926,401.0819688999909,None,,,,001,2021_Mar_17_1315,AB_pic,2020.2.10,59.98857817329337,
AB,lag4,4,5,9,0.1,0.05,0.2,main,,,,,0,62,62,62,,,,,,,africanelephant.jpg,ant.jpg,chair.jpg,flag.jpg,cashregister01.jpg,hammerheadshark.jpg,shovel01.jpg,eyepatch.jpg,tortoise01.jpg,alligator.jpg,candycane01a.jpg,moon.jpg,tulip02.jpg,pingpongtable.jpg,boxingglove01.jpg,mummy.jpg,trophy01.jpg,,,,,,,1,0,11,,,,,.\resources\tortoise01.jpg,,,1,,,,,,,,,1,,,,,,,,,407.214916109998,None,None,407.214916109998,None,,,,,,,401.4486345999903,404.19844699998794,401.4486345999903,404.19844699998794,403.9318132999906,None,0.16489699999510776,0.3148767999955453,0.4648066999943694,0.6148630999960005,0.7647782999993069,0.9147744999936549,1.064788799994858,1.2147757999919122,1.3648170999949798,1.5148047999973642,1.6647935999935726,1.8147796999983257,,,404.4319117999985,None,404.4319117999985,None,406.2649643999903,None,406.2649643999903,None,left,0.36052010000275914,406.2649643999903,None,406.66492769999604,None,406.66492769999604,None,right,0.5208240999927511,406.66492769999604,None,,,,001,2021_Mar_17_1315,AB_pic,2020.2.10,59.98857817329337,
AB,lag1,1,3,4,0.1,0.05,0.2,main,,,,,0,63,63,63,,,,,,,boxingglove01.jpg,hammerheadshark.jpg,chair.jpg,cashregister01.jpg,makiroll.jpg,shovel01.jpg,birdfeeder.jpg,banjo.jpg,triangle.jpg,xylophone.jpg,moon.jpg,holdfast.jpg,tortoise01.jpg,cocktailshrimp02.jpg,eyepatch.jpg,candycane01a.jpg,penguin.jpg,,,,,,,0,0,6,,,,,.\resources\cashregister01.jpg,,,1,,,,,,,,,1,,,,,,,,,414.59776190998963,None,None,414.59776190998963,None,,,,,,,407.2315538999974,409.98137479998695,407.2315538999974,409.98137479998695,409.7147430999903,None,0.16419729999324773,0.31417929999588523,0.46418379999522585,0.6141758999874583,0.7641443999891635,0.9141151999938302,1.0641292999935104,,,,,,,,410.2146989999892,None,410.2146989999892,None,411.29796089998854,None,411.29796089998854,None,right,0.8397934999957215,411.29796089998854,None,412.1812527999864,None,412.1812527999864,None,right,2.396214799999143,412.1812527999864,None,,,,001,2021_Mar_17_1315,AB_pic,2020.2.10,59.98857817329337,
AB,lag5,5,4,9,0.1,0.05,0.2,main,,,,,0,64,64,64,,,,,,,pingpongtable.jpg,triangle.jpg,makiroll.jpg,banjo.jpg,boxingglove01.jpg,trophy01.jpg,moon.jpg,penguin.jpg,acousticguitar02.jpg,tortoise01.jpg,alligator.jpg,noparkingsign.jpg,tulip02.jpg,hammerheadshark.jpg,bow.jpg,birdfeeder.jpg,xylophone.jpg,,,,,,,1,0,11,,,,,.\resources\acousticguitar02.jpg,,,1,,,,,,,,,1,,,,,,,,,420.2307800099981,None,None,420.2307800099981,None,,,,,,,414.6144076999917,417.3646708999877,414.6144076999917,417.3646708999877,417.0975536999904,None,0.16418350000458304,0.31455320000532083,0.46455730000161566,0.6141132000047946,0.7641661999950884,0.9141192999959458,1.0641347000055248,1.2141654000006383,1.364152699999977,1.5141233000031207,1.6641429000010248,1.8140886000037426,,,417.597554699998,None,417.597554699998,None,419.4307848999888,None,419.4307848999888,None,left,0.5707801999960793,419.4307848999888,None,420.0474033999926,None,420.0474033999926,None,right,0.16215289999672677,420.0474033999926,None,,,,001,2021_Mar_17_1315,AB_pic,2020.2.10,59.98857817329337,
AB,lag4,4,3,7,0.1,0.05,0.2,main,,,,,0,65,65,65,,,,,,,bow.jpg,banjo.jpg,boxingglove01.jpg,flag.jpg,cashregister01.jpg,noparkingsign.jpg,hammerheadshark.jpg,chair.jpg,trophy01.jpg,xylophone.jpg,alligator.jpg,cocktailshrimp02.jpg,shovel01.jpg,moon.jpg,eyepatch.jpg,pingpongtable.jpg,tortoise01.jpg,,,,,,,0,0,9,,,,,.\resources\hammerheadshark.jpg,,,1,,,,,,,,,1,,,,,,,,,425.74681460998835,None,None,425.74681460998835,None,,,,,,,420.2474213999958,422.99728449998656,420.2474213999958,422.99728449998656,422.73063329998695,None,0.16412319999653846,0.3140865000023041,0.4641390000033425,0.6140737999958219,0.7640588999929605,0.9140345000050729,1.0640484000032302,1.214177000001655,1.3640427000063937,1.5139936000050511,,,,,423.24727449999773,None,423.24727449999773,None,424.76380749999953,None,424.76380749999953,None,right,0.7336614999949234,424.76380749999953,None,425.53010439999343,None,425.53010439999343,None,right,0.19129780000366736,425.53010439999343,None,,,,001,2021_Mar_17_1315,AB_pic,2020.2.10,59.98857817329337,
AB,lag7,7,3,10,0.1,0.05,0.2,main,,,,,0,66,66,66,,,,,,,alligator.jpg,candycane01a.jpg,africanelephant.jpg,holdfast.jpg,moon.jpg,banjo.jpg,makiroll.jpg,blender.jpg,mummy.jpg,shovel01.jpg,eyepatch.jpg,cocktailshrimp02.jpg,flag.jpg,chair.jpg,penguin.jpg,pingpongtable.jpg,birdfeeder.jpg,,,,,,,0,0,12,,,,,.\resources\shovel01.jpg,,,1,,,,,,,,,1,,,,,,,,,431.31308760999235,None,None,431.31308760999235,None,,,,,,,425.746788199991,428.4968286999938,425.746788199991,428.4968286999938,428.2468426999985,None,0.16464979999000207,0.31460739999602083,0.4645911999978125,0.614588599986746,0.7645807999942917,0.9145731999888085,1.0645816999895032,1.2145603999961168,1.3645983999886084,1.5143248999956995,1.6643241999991005,1.8143361999973422,1.9642964999948163,,428.7468100999977,None,428.7468100999977,None,430.7131168999913,None,430.7131168999913,None,right,0.3764571000065189,430.7131168999913,None,431.11309229998733,None,431.11309229998733,None,right,0.17646639999293257,431.11309229998733,None,,,,001,2021_Mar_17_1315,AB_pic,2020.2.10,59.98857817329337,
AB,lag2,2,3,5,0.1,0.05,0.2,main,,,,,0,67,67,67,,,,,,,holdfast.jpg,tortoise01.jpg,hammerheadshark.jpg,penguin.jpg,mummy.jpg,eyepatch.jpg,africanelephant.jpg,shovel01.jpg,candycane01a.jpg,triangle.jpg,pingpongtable.jpg,trophy01.jpg,bow.jpg,cashregister01.jpg,chair.jpg,moon.jpg,noparkingsign.jpg,,,,,,,0,0,7,,,,,.\resources\mummy.jpg,,,1,,,,,,,,,1,,,,,,,,,436.11276160998676,None,None,436.11276160998676,None,,,,,,,431.3130827999994,434.06312929998967,431.3130827999994,434.06312929998967,433.8131846999895,None,0.16476949999923818,0.31477720000839327,0.46470090000366326,0.6146775000088383,0.7646761000069091,0.9144448000006378,1.0644357999990461,1.2144555000122637,,,,,,,434.31310049998865,None,434.31310049998865,None,435.5294830999919,None,435.5294830999919,None,right,0.3679571999964537,435.5294830999919,None,435.91278919999604,None,435.91278919999604,None,right,0.1846810999995796,435.91278919999604,None,,,,001,2021_Mar_17_1315,AB_pic,2020.2.10,59.98857817329337,
AB,lag6,6,4,10,0.1,0.05,0.2,main,,,,,0,68,68,68,,,,,,,flag.jpg,candycane01a.jpg,pingpongtable.jpg,africanelephant.jpg,dolphin01.jpg,shovel01.jpg,holdfast.jpg,mummy.jpg,banjo.jpg,tulip02.jpg,tortoise01.jpg,makiroll.jpg,noparkingsign.jpg,bow.jpg,cashregister01.jpg,hammerheadshark.jpg,penguin.jpg,,,,,,,0,0,12,,,,,.\resources\tulip02.jpg,,,1,,,,,,,,,1,,,,,,,,,441.56240400999667,None,None,441.56240400999667,None,,,,,,,436.11278169999423,438.8628284999868,436.11278169999423,438.8628284999868,438.6128282999998,None,0.16422639999655075,0.3142269999952987,0.4642044999927748,0.6142446000012569,0.7641763999999966,0.9142049999936717,1.0641718999977456,1.2139559999923222,1.3639485999883618,1.5139168000023346,1.6638756999891484,1.8139554999943357,1.9638884000014514,,439.11279379999905,None,439.11279379999905,None,441.0791191999888,None,441.0791191999888,None,right,0.30632499999774154,441.0791191999888,None,441.4124210999871,None,441.4124210999871,None,right,0.13302669998665806,441.4124210999871,None,,,,001,2021_Mar_17_1315,AB_pic,2020.2.10,59.98857817329337,
AB,lag1,1,4,5,0.1,0.05,0.2,main,,,,,0,69,69,69,,,,,,,pingpongtable.jpg,tortoise01.jpg,noparkingsign.jpg,shovel01.jpg,dolphin01.jpg,cocktailshrimp02.jpg,holdfast.jpg,blender.jpg,tulip02.jpg,xylophone.jpg,alligator.jpg,boxingglove01.jpg,cashregister01.jpg,banjo.jpg,moon.jpg,mummy.jpg,birdfeeder.jpg,,,,,,,0,0,7,,,,,.\resources\dolphin01.jpg,,,1,,,,,,,,,0,,,,,,,,,446.8787294099922,None,None,446.8787294099922,None,,,,,,,441.56240699999034,444.3124495999946,441.56240699999034,444.3124495999946,444.0624763999949,None,0.16486900000018068,0.3148534999927506,0.4649014000024181,0.6148681999911787,0.7648477999900933,0.9148485999903642,1.0648003999958746,1.214801099995384,,,,,,,444.56244769999466,None,444.56244769999466,None,445.7790160999866,None,445.7790160999866,None,right,0.926436299996567,445.7790160999866,None,446.7287357999885,None,446.7287357999885,None,left,0.1287612000014633,446.7287357999885,None,,,,001,2021_Mar_17_1315,AB_pic,2020.2.10,59.98857817329337,
AB,lag3,3,5,8,0.1,0.05,0.2,main,,,,,0,70,70,70,,,,,,,cashregister01.jpg,flag.jpg,dolphin01.jpg,acousticguitar02.jpg,candycane01a.jpg,noparkingsign.jpg,cocktailshrimp02.jpg,ant.jpg,trophy01.jpg,xylophone.jpg,tulip02.jpg,tortoise01.jpg,alligator.jpg,banjo.jpg,hammerheadshark.jpg,birdfeeder.jpg,makiroll.jpg,,,,,,,0,0,10,,,,,.\resources\ant.jpg,,,1,,,,,,,,,1,,,,,,,,,451.8617830099858,None,None,451.8617830099858,None,,,,,,,446.8787125999952,449.6287728999887,446.8787125999952,449.6287728999887,449.37880519998726,None,0.1648570999968797,0.31483570000273176,0.46485740000207443,0.6147999999957392,0.7648017000028631,0.9148167999956058,1.0647782000014558,1.2147694000013871,1.3645372999890242,1.5145462999935262,1.6645542999904137,,,,449.87873799999943,None,449.87873799999943,None,451.54510219999065,None,451.54510219999065,None,right,0.16831729999103118,451.54510219999065,None,451.7450695999869,None,451.7450695999869,None,right,0.09647319999930914,451.7450695999869,None,,,,001,2021_Mar_17_1315,AB_pic,2020.2.10,59.98857817329337,
AB,lag4,4,3,7,0.1,0.05,0.2,main,,,,,0,71,71,71,,,,,,,xylophone.jpg,makiroll.jpg,boxingglove01.jpg,blender.jpg,africanelephant.jpg,birdfeeder.jpg,trophy01.jpg,pingpongtable.jpg,ant.jpg,triangle.jpg,shovel01.jpg,tortoise01.jpg,moon.jpg,eyepatch.jpg,banjo.jpg,flag.jpg,mummy.jpg,,,,,,,1,0,9,,,,,.\resources\trophy01.jpg,,,1,,,,,,,,,0,,,,,,,,,457.978010309994,None,None,457.978010309994,None,,,,,,,451.86174109998683,454.6117460999958,451.86174109998683,454.6117460999958,454.361800499988,None,0.16517019999446347,0.3151196999970125,0.4650991999951657,0.6151493999932427,0.7651256999961333,0.915201599986176,1.0650989999994636,1.2150839999958407,1.3648542999872006,1.5148178999952506,,,,,454.86172950000037,None,454.86172950000037,None,456.3781198999932,None,456.3781198999932,None,left,0.88731830001052,456.3781198999932,None,457.29474219999975,None,457.29474219999975,None,left,0.6668762000044808,457.29474219999975,None,,,,001,2021_Mar_17_1315,AB_pic,2020.2.10,59.98857817329337,
AB,lag1,1,3,4,0.1,0.05,0.2,main,,,,,0,72,72,72,,,,,,,cocktailshrimp02.jpg,moon.jpg,boxingglove01.jpg,banjo.jpg,flag.jpg,candycane01a.jpg,africanelephant.jpg,holdfast.jpg,chair.jpg,dolphin01.jpg,penguin.jpg,tulip02.jpg,triangle.jpg,tortoise01.jpg,cashregister01.jpg,alligator.jpg,birdfeeder.jpg,,,,,,,0,0,6,,,,,.\resources\banjo.jpg,,,1,,,,,,,,,1,,,,,,,,,462.9276730099984,None,None,462.9276730099984,None,,,,,,,457.9780032999988,460.7280374999973,457.9780032999988,460.7280374999973,460.47805099999823,None,0.16417420000652783,0.3141636000073049,0.46418979999725707,0.6141095000057248,0.7641230000008363,0.9141208000073675,1.0641534000023967,,,,,,,,460.9780191999889,None,460.9780191999889,None,462.04462369999965,None,462.04462369999965,None,right,0.4528396999958204,462.04462369999965,None,462.52773109999544,None,462.52773109999544,None,right,0.36977469999692403,462.52773109999544,None,,,,001,2021_Mar_17_1315,AB_pic,2020.2.10,59.98857817329337,
AB,lag2,2,3,5,0.1,0.05,0.2,main,,,,,0,73,73,73,,,,,,,trophy01.jpg,shovel01.jpg,noparkingsign.jpg,candycane01a.jpg,ant.jpg,tortoise01.jpg,alligator.jpg,blender.jpg,bow.jpg,cashregister01.jpg,boxingglove01.jpg,moon.jpg,acousticguitar02.jpg,hammerheadshark.jpg,pingpongtable.jpg,tulip02.jpg,xylophone.jpg,,,,,,,1,0,7,,,,,.\resources\ant.jpg,,,1,,,,,,,,,0,,,,,,,,,469.1440283099975,None,None,469.1440283099975,None,,,,,,,462.9276613999973,465.67771209999046,462.9276613999973,465.67771209999046,465.42773039999884,None,0.16505869998945855,0.3150502999924356,0.46507829999609385,0.6150269999925513,0.7650092999974731,0.914993799990043,1.0649999999877764,1.2149954999913462,,,,,,,465.9276855999924,None,465.9276855999924,None,467.1442798999924,None,467.1442798999924,None,left,1.0412569000036456,467.1442798999924,None,468.2107357999921,None,468.2107357999921,None,left,0.9108114999980899,468.2107357999921,None,,,,001,2021_Mar_17_1315,AB_pic,2020.2.10,59.98857817329337,
AB,lag5,5,5,10,0.1,0.05,0.2,main,,,,,0,74,74,74,,,,,,,candycane01a.jpg,alligator.jpg,triangle.jpg,africanelephant.jpg,penguin.jpg,shovel01.jpg,ant.jpg,cocktailshrimp02.jpg,dolphin01.jpg,noparkingsign.jpg,blender.jpg,hammerheadshark.jpg,moon.jpg,birdfeeder.jpg,acousticguitar02.jpg,tortoise01.jpg,eyepatch.jpg,,,,,,,1,0,12,,,,,.\resources\noparkingsign.jpg,,,1,,,,,,,,,0,,,,,,,,,475.9103446099936,None,None,475.9103446099936,None,,,,,,,469.16070869998657,471.91096099998686,469.16070869998657,471.91096099998686,471.64428359999147,None,0.16417850001016632,0.31415810000908095,0.46412489999784157,0.6141669000062393,0.764159300000756,0.9141661000030581,1.0642330999980913,1.2138227000104962,1.3637464000057662,1.5137317000044277,1.6637212000059662,1.8137117000005674,1.9637426999979652,,472.1443595999881,None,472.1443595999881,None,474.1271410999907,None,474.1271410999907,None,left,1.1143780999991577,474.1271410999907,None,475.2770610999869,None,475.2770610999869,None,left,0.6044063000008464,475.2770610999869,None,,,,001,2021_Mar_17_1315,AB_pic,2020.2.10,59.98857817329337,
AB,lag6,6,4,10,0.1,0.05,0.2,main,,,,,0,75,75,75,,,,,,,cashregister01.jpg,birdfeeder.jpg,mummy.jpg,makiroll.jpg,dolphin01.jpg,trophy01.jpg,noparkingsign.jpg,eyepatch.jpg,ant.jpg,moon.jpg,boxingglove01.jpg,triangle.jpg,blender.jpg,africanelephant.jpg,holdfast.jpg,xylophone.jpg,bow.jpg,,,,,,,0,1,12,,,,,.\resources\moon.jpg,,,1,,,,,,,,,1,,,,,,,,,483.1098784099915,None,None,483.1098784099915,None,,,,,,,475.9270179999876,478.6773683999927,475.9270179999876,478.6773683999927,478.41075439999986,None,0.16414770000847057,0.31411260001186747,0.46413780000875704,0.6141069000004791,0.76411060000828,0.9140788000077009,1.0640745999990031,1.2140766000084113,1.364050900010625,1.5140344000101322,1.6640219000109937,1.8140205000090646,1.9640134000073886,,478.9101910999889,None,478.9101910999889,None,480.89342469999974,None,480.89342469999974,None,right,0.7560991999926046,480.89342469999974,None,481.69331930000044,None,481.69331930000044,None,left,1.3881831000035163,481.69331930000044,None,,,,001,2021_Mar_17_1315,AB_pic,2020.2.10,59.98857817329337,
AB,lag7,7,3,10,0.1,0.05,0.2,main,,,,,0,76,76,76,,,,,,,flag.jpg,xylophone.jpg,africanelephant.jpg,moon.jpg,tulip02.jpg,holdfast.jpg,dolphin01.jpg,noparkingsign.jpg,mummy.jpg,birdfeeder.jpg,makiroll.jpg,blender.jpg,ant.jpg,banjo.jpg,trophy01.jpg,tortoise01.jpg,eyepatch.jpg,,,,,,,0,0,12,,,,,.\resources\birdfeeder.jpg,,,1,,,,,,,,,1,,,,,,,,,488.6595183099882,None,None,488.6595183099882,None,,,,,,,483.12654559999646,485.8767586999893,483.12654559999646,485.8767586999893,485.6101318000001,None,0.16472909999720287,0.314770299999509,0.4647111000085715,0.6147375000000466,0.7646803999959957,0.9146775999979582,1.0647046000085538,1.2142722999997204,1.3642720000061672,1.5142434000008507,1.6642131999979028,1.8142385999963153,1.9641903000010643,,486.109672599996,None,486.109672599996,None,488.09287549999135,None,488.09287549999135,None,right,0.3327123999915784,488.09287549999135,None,488.45970219999435,None,488.45970219999435,None,right,0.17369569999573287,488.45970219999435,None,,,,001,2021_Mar_17_1315,AB_pic,2020.2.10,59.98857817329337,
AB,lag3,3,4,7,0.1,0.05,0.2,main,,,,,0,77,77,77,,,,,,,pingpongtable.jpg,acousticguitar02.jpg,trophy01.jpg,cashregister01.jpg,dolphin01.jpg,ant.jpg,bow.jpg,tulip02.jpg,cocktailshrimp02.jpg,xylophone.jpg,penguin.jpg,alligator.jpg,eyepatch.jpg,birdfeeder.jpg,boxingglove01.jpg,flag.jpg,hammerheadshark.jpg,,,,,,,0,0,9,,,,,.\resources\bow.jpg,,,1,,,,,,,,,1,,,,,,,,,494.00915610998635,None,None,494.00915610998635,None,,,,,,,488.67618279998715,491.426430099993,488.67618279998715,491.426430099993,491.1593484999903,None,0.16466699999000411,0.31464329999289475,0.4646624000015436,0.6142236000014236,0.7642215999949258,0.914203099993756,1.064219599997159,1.2141809000022477,1.3641840999916894,1.5141946999938227,,,,,491.6593198999908,None,491.6593198999908,None,493.1925579999952,None,493.1925579999952,None,right,0.4169963999884203,493.1925579999952,None,493.62585189999663,None,493.62585189999663,None,right,0.3676162000047043,493.62585189999663,None,,,,001,2021_Mar_17_1315,AB_pic,2020.2.10,59.98857817329337,
AB,lag4,4,4,8,0.1,0.05,0.2,main,,,,,0,78,78,78,,,,,,,dolphin01.jpg,makiroll.jpg,birdfeeder.jpg,banjo.jpg,tulip02.jpg,bow.jpg,flag.jpg,blender.jpg,mummy.jpg,holdfast.jpg,trophy01.jpg,chair.jpg,boxingglove01.jpg,acousticguitar02.jpg,tortoise01.jpg,penguin.jpg,cashregister01.jpg,,,,,,,0,0,10,,,,,.\resources\blender.jpg,,,1,,,,,,,,,1,,,,,,,,,499.1588103099959,None,None,499.1588103099959,None,,,,,,,494.02582929999335,496.77605799998855,494.02582929999335,496.77605799998855,496.5094054999936,None,0.1650591999932658,0.3150394999975106,0.46505769999930635,0.6150491000007605,0.7650451999943471,0.9150038999941899,1.0649928000057116,1.214563100002124,1.364562599992496,1.5145555000053719,1.6645403000002261,,,,497.00896519998787,None,497.00896519998787,None,498.69219919999887,None,498.69219919999887,None,right,0.27725730001111515,498.69219919999887,None,498.9921661999979,None,498.9921661999979,None,right,0.14540300000226125,498.9921661999979,None,,,,001,2021_Mar_17_1315,AB_pic,2020.2.10,59.98857817329337,
AB,lag5,5,3,8,0.1,0.05,0.2,main,,,,,0,79,79,79,,,,,,,pingpongtable.jpg,dolphin01.jpg,banjo.jpg,penguin.jpg,alligator.jpg,makiroll.jpg,acousticguitar02.jpg,candycane01a.jpg,bow.jpg,flag.jpg,cocktailshrimp02.jpg,trophy01.jpg,ant.jpg,eyepatch.jpg,boxingglove01.jpg,noparkingsign.jpg,blender.jpg,,,,,,,0,0,10,,,,,.\resources\candycane01a.jpg,,,1,,,,,,,,,1,,,,,,,,,504.5917982099956,None,None,504.5917982099956,None,,,,,,,499.17548669999815,501.92570569999225,499.17548669999815,501.92570569999225,501.65907169999264,None,0.16493610000179615,0.31497059999674093,0.4648925999936182,0.6148650999966776,0.7648584999988088,0.9148752000037348,1.0644162999960827,1.2144497999979649,1.3643932999984827,1.5144009999930859,1.6643839000025764,,,,502.15862409998954,None,502.15862409998954,None,503.841846899988,None,503.841846899988,None,right,0.38362369999231305,503.841846899988,None,504.25849860000017,None,504.25849860000017,None,right,0.31086659998982213,504.25849860000017,None,,,,001,2021_Mar_17_1315,AB_pic,2020.2.10,59.98857817329337,
AB,lag6,6,3,9,0.1,0.05,0.2,main,,,,,0,80,80,80,,,,,,,cocktailshrimp02.jpg,makiroll.jpg,boxingglove01.jpg,triangle.jpg,penguin.jpg,hammerheadshark.jpg,bow.jpg,tulip02.jpg,acousticguitar02.jpg,blender.jpg,dolphin01.jpg,xylophone.jpg,trophy01.jpg,pingpongtable.jpg,cashregister01.jpg,tortoise01.jpg,banjo.jpg,,,,,,,0,0,11,,,,,.\resources\acousticguitar02.jpg,,,1,,,,,,,,,1,,,,,,,,,509.95810790999093,None,None,509.95810790999093,None,,,,,,,504.6084764999978,507.3586901999952,504.6084764999978,507.3586901999952,507.0916283999977,None,0.16489339999679942,0.31484929998987354,0.46483660000376403,0.6148231999977725,0.7644185999961337,0.914423700000043,1.0644093000009889,1.214418099989416,1.3643962999922223,1.514359599997988,1.6643526999978349,1.8143599000031827,,,507.5916023999889,None,507.5916023999889,None,509.42481689999113,None,509.42481689999113,None,right,0.31257200000982266,509.42481689999113,None,509.75811959999555,None,509.75811959999555,None,right,0.17132560000754893,509.75811959999555,None,,,,001,2021_Mar_17_1315,AB_pic,2020.2.10,59.98857817329337,
AB,lag3,3,5,8,0.1,0.05,0.2,main,,,,,0,81,81,81,,,,,,,banjo.jpg,triangle.jpg,hammerheadshark.jpg,cocktailshrimp02.jpg,bow.jpg,holdfast.jpg,noparkingsign.jpg,birdfeeder.jpg,ant.jpg,xylophone.jpg,makiroll.jpg,shovel01.jpg,chair.jpg,africanelephant.jpg,candycane01a.jpg,flag.jpg,mummy.jpg,,,,,,,0,0,10,,,,,.\resources\birdfeeder.jpg,,,1,,,,,,,,,1,,,,,,,,,515.2244266099908,None,None,515.2244266099908,None,,,,,,,509.9747776999866,512.7250177999958,509.9747776999866,512.7250177999958,512.4583562999906,None,0.16503120001289062,0.3145247000065865,0.46451550000347197,0.6145056000095792,0.7645192000054521,0.9145028000057209,1.0644879000028595,1.2144678000040585,1.364452200010419,1.5144675000046846,1.6644634000113,,,,512.9579133999941,None,512.9579133999941,None,514.6411709999957,None,514.6411709999957,None,right,0.3282815999991726,514.6411709999957,None,515.0077799999999,None,515.0077799999999,None,right,0.18561339999723714,515.0077799999999,None,,,,001,2021_Mar_17_1315,AB_pic,2020.2.10,59.98857817329337,
AB,lag7,7,5,12,0.1,0.05,0.2,main,,,,,0,82,82,82,,,,,,,boxingglove01.jpg,chair.jpg,holdfast.jpg,acousticguitar02.jpg,banjo.jpg,moon.jpg,cashregister01.jpg,eyepatch.jpg,triangle.jpg,birdfeeder.jpg,cocktailshrimp02.jpg,mummy.jpg,tortoise01.jpg,makiroll.jpg,tulip02.jpg,xylophone.jpg,noparkingsign.jpg,,,,,,,0,0,14,,,,,.\resources\mummy.jpg,,,1,,,,,,,,,1,,,,,,,,,521.5573613099871,None,None,521.5573613099871,None,,,,,,,515.2410990999924,517.9913253999985,515.2410990999924,517.9913253999985,517.7246766999888,None,0.1648354999924777,0.3148847999982536,0.4647932999941986,0.6148354999895673,0.764785799998208,0.9147905999998329,1.0643721999949776,1.214343599989661,1.364309399999911,1.5143218000011984,1.6643603999982588,1.8143178000027547,1.9642755999957444,2.1142891999916174,518.2242311999871,None,518.2242311999871,None,520.5074269999895,None,520.5074269999895,None,right,0.3020088999910513,520.5074269999895,None,520.8407423999888,None,520.8407423999888,None,right,0.6886585000029299,520.8407423999888,None,2.264263499993831,,,001,2021_Mar_17_1315,AB_pic,2020.2.10,59.98857817329337,
AB,lag1,1,3,4,0.1,0.05,0.2,main,,,,,0,83,83,83,,,,,,,birdfeeder.jpg,africanelephant.jpg,penguin.jpg,tulip02.jpg,hammerheadshark.jpg,pingpongtable.jpg,boxingglove01.jpg,ant.jpg,cocktailshrimp02.jpg,triangle.jpg,tortoise01.jpg,acousticguitar02.jpg,chair.jpg,dolphin01.jpg,cashregister01.jpg,blender.jpg,bow.jpg,,,,,,,0,1,6,,,,,.\resources\tulip02.jpg,,,1,,,,,,,,,1,,,,,,,,,527.0736650099891,None,None,527.0736650099891,None,,,,,,,521.5740369999985,524.3242770999932,521.5740369999985,524.3242770999932,524.0572083999868,None,0.16367949999403208,0.31423390000418294,0.46406739999656565,0.6140733999927761,0.7636438000045018,0.91363850000198,1.0636350999993738,,,,,,,,524.557184099991,None,524.557184099991,None,525.6404437999881,None,525.6404437999881,None,right,1.1529385000030743,525.6404437999881,None,526.8403927999898,None,526.8403927999898,None,left,0.21698850000393577,526.8403927999898,None,,,,001,2021_Mar_17_1315,AB_pic,2020.2.10,59.98857817329337,
AB,lag2,2,3,5,0.1,0.05,0.2,main,,,,,0,84,84,84,,,,,,,tulip02.jpg,xylophone.jpg,hammerheadshark.jpg,banjo.jpg,alligator.jpg,ant.jpg,flag.jpg,candycane01a.jpg,boxingglove01.jpg,birdfeeder.jpg,moon.jpg,blender.jpg,chair.jpg,penguin.jpg,acousticguitar02.jpg,trophy01.jpg,africanelephant.jpg,,,,,,,0,1,7,,,,,.\resources\alligator.jpg,,,1,,,,,,,,,1,,,,,,,,,532.3566405099875,None,None,532.3566405099875,None,,,,,,,527.0903434999927,529.8406030999904,527.0903434999927,529.8406030999904,529.5739503999939,None,0.16423299998859875,0.3142070999892894,0.46420909999869764,0.6142052999930456,0.7641946999938227,0.9141789999994216,1.0641665000002831,1.2141541999881156,,,,,,,530.0734793999873,None,530.0734793999873,None,531.3067315999942,None,531.3067315999942,None,right,0.8706348000123398,531.3067315999942,None,532.2233741999953,None,532.2233741999953,None,left,0.10598849999951199,532.2233741999953,None,,,,001,2021_Mar_17_1315,AB_pic,2020.2.10,59.98857817329337,
AB,lag1,1,4,5,0.1,0.05,0.2,main,,,,,0,85,85,85,,,,,,,tortoise01.jpg,candycane01a.jpg,chair.jpg,birdfeeder.jpg,noparkingsign.jpg,eyepatch.jpg,pingpongtable.jpg,blender.jpg,ant.jpg,africanelephant.jpg,penguin.jpg,shovel01.jpg,moon.jpg,dolphin01.jpg,cocktailshrimp02.jpg,alligator.jpg,tulip02.jpg,,,,,,,0,0,7,,,,,.\resources\noparkingsign.jpg,,,1,,,,,,,,,1,,,,,,,,,537.4729828099983,None,None,537.4729828099983,None,,,,,,,532.3733332999982,535.1231058999983,532.3733332999982,535.1231058999983,534.8564585999993,None,0.16430530000070576,0.31430050000199117,0.4642792000086047,0.6142741000076057,0.7642759000009391,0.9142505000054371,1.064244499997585,1.2142309000046225,,,,,,,535.3564706999896,None,535.3564706999896,None,536.5897158999869,None,536.5897158999869,None,right,0.7156760999932885,536.5897158999869,None,537.3396813999861,None,537.3396813999861,None,right,0.11769040000217501,537.3396813999861,None,,,,001,2021_Mar_17_1315,AB_pic,2020.2.10,59.98857817329337,
AB,lag5,5,4,9,0.1,0.05,0.2,main,,,,,0,86,86,86,,,,,,,shovel01.jpg,cashregister01.jpg,moon.jpg,holdfast.jpg,tulip02.jpg,noparkingsign.jpg,makiroll.jpg,boxingglove01.jpg,hammerheadshark.jpg,triangle.jpg,alligator.jpg,birdfeeder.jpg,mummy.jpg,ant.jpg,tortoise01.jpg,xylophone.jpg,pingpongtable.jpg,,,,,,,0,1,11,,,,,.\resources\hammerheadshark.jpg,,,1,,,,,,,,,1,,,,,,,,,543.3059539099952,None,None,543.3059539099952,None,,,,,,,537.4896380999999,540.2394898999919,537.4896380999999,540.2394898999919,539.972815999994,None,0.16434909999952652,0.31433280000055674,0.4642580000072485,0.6143382000009296,0.7642359000019496,0.9142252000019653,1.0642164000018965,1.2142118000047049,1.3641933000035351,1.514257600007113,1.6641781000071205,1.8142341000057058,,,540.4728308999911,None,540.4728308999911,None,542.3060025999876,None,542.3060025999876,None,right,0.8554268000007141,542.3060025999876,None,543.2059397999983,None,543.2059397999983,None,left,0.07543330000771675,543.2059397999983,None,,,,001,2021_Mar_17_1315,AB_pic,2020.2.10,59.98857817329337,
AB,lag7,7,4,11,0.1,0.05,0.2,main,,,,,0,87,87,87,,,,,,,blender.jpg,banjo.jpg,bow.jpg,flag.jpg,penguin.jpg,cocktailshrimp02.jpg,boxingglove01.jpg,dolphin01.jpg,chair.jpg,tortoise01.jpg,africanelephant.jpg,makiroll.jpg,candycane01a.jpg,triangle.jpg,mummy.jpg,holdfast.jpg,moon.jpg,,,,,,,0,0,13,,,,,.\resources\africanelephant.jpg,,,1,,,,,,,,,1,,,,,,,,,548.9722544099961,None,None,548.9722544099961,None,,,,,,,543.3225978999981,546.0724188999884,543.3225978999981,546.0724188999884,545.8058082999923,None,0.16485600000305567,0.3148269000084838,0.4647990000084974,0.6148351000010734,0.764782300000661,0.9147698000015225,1.0647544000094058,1.214759900001809,1.364740900011384,1.5147611000138568,1.664714600003208,1.814711700004409,1.9647003000136465,2.1146936000004644,546.3057427999884,None,546.3057427999884,None,548.4389879999944,None,548.4389879999944,None,right,0.33853999999701045,548.4389879999944,None,548.8222354999889,None,548.8222354999889,None,right,0.12312250000832137,548.8222354999889,None,,,,001,2021_Mar_17_1315,AB_pic,2020.2.10,59.98857817329337,
AB,lag4,4,3,7,0.1,0.05,0.2,main,,,,,0,88,88,88,,,,,,,holdfast.jpg,alligator.jpg,shovel01.jpg,bow.jpg,trophy01.jpg,candycane01a.jpg,tortoise01.jpg,penguin.jpg,hammerheadshark.jpg,moon.jpg,noparkingsign.jpg,cashregister01.jpg,tulip02.jpg,pingpongtable.jpg,eyepatch.jpg,birdfeeder.jpg,boxingglove01.jpg,,,,,,,0,0,9,,,,,.\resources\tortoise01.jpg,,,1,,,,,,,,,1,,,,,,,,,554.0385947099887,None,None,554.0385947099887,None,,,,,,,548.9888875999895,551.7387302999996,548.9888875999895,551.7387302999996,551.4720887999865,None,0.16487900000356603,0.3148679000005359,0.46485040000698064,0.6147762000036892,0.7648360000021057,0.914824999999837,1.06481039999926,1.214746900004684,1.3647885999962455,1.5148197999951662,,,,,551.9720232999971,None,551.9720232999971,None,553.5052838999982,None,553.5052838999982,None,right,0.3281557000009343,553.5052838999982,None,553.8719100999879,None,553.8719100999879,None,right,0.1455232000007527,553.8719100999879,None,,,,001,2021_Mar_17_1315,AB_pic,2020.2.10,59.98857817329337,
AB,lag6,6,4,10,0.1,0.05,0.2,main,,,,,0,89,89,89,,,,,,,cashregister01.jpg,birdfeeder.jpg,banjo.jpg,holdfast.jpg,blender.jpg,acousticguitar02.jpg,africanelephant.jpg,eyepatch.jpg,ant.jpg,penguin.jpg,cocktailshrimp02.jpg,flag.jpg,boxingglove01.jpg,chair.jpg,pingpongtable.jpg,shovel01.jpg,makiroll.jpg,,,,,,,1,0,12,,,,,.\resources\penguin.jpg,,,1,,,,,,,,,1,,,,,,,,,560.0548430099909,None,None,560.0548430099909,None,,,,,,,554.055229199992,556.8050357999891,554.055229199992,556.8050357999891,556.5384367999941,None,0.1634875000017928,0.3134810000046855,0.4634723000053782,0.6134567000117386,0.7634308000124292,0.9134684000018751,1.0634273000032408,1.2134179000131553,1.3634118000045419,1.5133956000063336,1.663401800004067,1.8134069000079762,1.9633566000120481,,557.0550266999926,None,557.0550266999926,None,559.0215678999957,None,559.0215678999957,None,left,0.8839033999975072,559.0215678999957,None,559.9382146999997,None,559.9382146999997,None,right,0.09518410000600852,559.9382146999997,None,,,,001,2021_Mar_17_1315,AB_pic,2020.2.10,59.98857817329337,
AB,lag3,3,3,6,0.1,0.05,0.2,main,,,,,0,90,90,90,,,,,,,pingpongtable.jpg,holdfast.jpg,acousticguitar02.jpg,dolphin01.jpg,blender.jpg,penguin.jpg,moon.jpg,makiroll.jpg,triangle.jpg,flag.jpg,tulip02.jpg,shovel01.jpg,africanelephant.jpg,alligator.jpg,birdfeeder.jpg,banjo.jpg,noparkingsign.jpg,,,,,,,0,0,8,,,,,.\resources\penguin.jpg,,,1,,,,,,,,,1,,,,,,,,,565.0211793099909,None,None,565.0211793099909,None,,,,,,,560.0715014999878,562.8213103999879,560.0715014999878,562.8213103999879,562.5546616999927,None,0.1642608999973163,0.31429180000850465,0.464289399998961,0.6142947000043932,0.7642628000030527,0.914254000002984,1.064241200001561,1.2142210000019986,1.3642418000090402,,,,,,563.0546274999942,None,563.0546274999942,None,564.4379229999904,None,564.4379229999904,None,right,0.35547629999928176,564.4379229999904,None,564.8378489999886,None,564.8378489999886,None,right,0.1634905999962939,564.8378489999886,None,,,,001,2021_Mar_17_1315,AB_pic,2020.2.10,59.98857817329337,
AB,lag2,2,3,5,0.1,0.05,0.2,main,,,,,0,91,91,91,,,,,,,cashregister01.jpg,blender.jpg,ant.jpg,flag.jpg,holdfast.jpg,pingpongtable.jpg,triangle.jpg,alligator.jpg,trophy01.jpg,acousticguitar02.jpg,hammerheadshark.jpg,moon.jpg,tulip02.jpg,mummy.jpg,bow.jpg,boxingglove01.jpg,birdfeeder.jpg,,,,,,,0,0,7,,,,,.\resources\holdfast.jpg,,,1,,,,,,,,,1,,,,,,,,,570.3374961099937,None,None,570.3374961099937,None,,,,,,,565.0378338999872,567.7876561999874,565.0378338999872,567.7876561999874,567.5210170999926,None,0.16391819999262225,0.3139262000040617,0.4639543999946909,0.6138904999970691,0.7638824000023305,0.9138683999917703,1.0638977999915369,1.2138530999945942,,,,,,,568.0209676999948,None,568.0209676999948,None,569.2542231999978,None,569.2542231999978,None,right,0.5151371999963885,569.2542231999978,None,569.8041822999949,None,569.8041822999949,None,right,0.5012742999970214,569.8041822999949,None,,,,001,2021_Mar_17_1315,AB_pic,2020.2.10,59.98857817329337,
AB,lag4,4,4,8,0.1,0.05,0.2,main,,,,,0,92,92,92,,,,,,,noparkingsign.jpg,tulip02.jpg,flag.jpg,triangle.jpg,tortoise01.jpg,birdfeeder.jpg,africanelephant.jpg,bow.jpg,dolphin01.jpg,holdfast.jpg,blender.jpg,boxingglove01.jpg,eyepatch.jpg,pingpongtable.jpg,cashregister01.jpg,shovel01.jpg,moon.jpg,,,,,,,0,0,10,,,,,.\resources\bow.jpg,,,1,,,,,,,,,1,,,,,,,,,575.5371621099941,None,None,575.5371621099941,None,,,,,,,570.3541521999869,573.1040146999876,570.3541521999869,573.1040146999876,572.8373384999868,None,0.16409640001074877,0.3141325000033248,0.46411970000190195,0.6141208000044571,0.7640290000126697,0.9140975000045728,1.0640232000005199,1.2140739000024041,1.3639922000002116,1.514053300008527,1.6639798000105657,,,,573.3373136999871,None,573.3373136999871,None,575.0205391999916,None,575.0205391999916,None,right,0.30086149999988265,575.0205391999916,None,575.353821599987,None,575.353821599987,None,right,0.15956429998914246,575.353821599987,None,,,,001,2021_Mar_17_1315,AB_pic,2020.2.10,59.98857817329337,
AB,lag7,7,4,11,0.1,0.05,0.2,main,,,,,0,93,93,93,,,,,,,tortoise01.jpg,noparkingsign.jpg,alligator.jpg,moon.jpg,pingpongtable.jpg,ant.jpg,banjo.jpg,boxingglove01.jpg,tulip02.jpg,makiroll.jpg,candycane01a.jpg,cocktailshrimp02.jpg,eyepatch.jpg,trophy01.jpg,bow.jpg,chair.jpg,cashregister01.jpg,,,,,,,1,0,13,,,,,.\resources\candycane01a.jpg,,,1,,,,,,,,,1,,,,,,,,,582.3533791099937,None,None,582.3533791099937,None,,,,,,,575.5538104999869,578.3036178999901,575.5538104999869,578.3036178999901,578.0369712999964,None,0.1650928000017302,0.3151419999921927,0.4650649999966845,0.6150554999912856,0.7650469999935012,0.9151096999994479,1.0650883000053,1.215077899993048,1.3650018000043929,1.5150598000036553,1.66496979999647,1.8150400000013178,1.9650321999943117,2.1150124999985565,578.5369449999998,None,578.5369449999998,None,580.6701363999891,None,580.6701363999891,None,left,0.8831990999897243,580.6701363999891,None,581.586741799998,None,581.586741799998,None,right,0.7348357000009855,581.586741799998,None,,,,001,2021_Mar_17_1315,AB_pic,2020.2.10,59.98857817329337,
