trialType,cndTyp,lag,T1_loc,T2_loc,stimLen,isi,skipProb,phase,trials.thisRepN,trials.thisTrialN,trials.thisN,trials.thisIndex,trials2.thisRepN,trials2.thisTrialN,trials2.thisN,trials2.thisIndex,text_3.started,text_3.stopped,key_resp_4.keys,key_resp_4.rt,key_resp_4.started,key_resp_4.stopped,img0,img1,img2,img3,img4,img5,img6,img7,img8,img9,img10,img11,img12,img13,img14,img15,img16,option1.started,option1.stopped,option2.started,option2.stopped,text_2.started,text_2.stopped,skip1,skip2,lastPresent,displayPicture.started,displayPicture.stopped,polygon_2.started,polygon_2.stopped,opt1_t1,polygon_4.started,polygon_4.stopped,cor1,option1_t1.started,option1_t1.stopped,key_resp.keys,key_resp.rt,key_resp.started,key_resp.stopped,polygon_5.started,polygon_5.stopped,cor2,option1_t2.started,option1_t2.stopped,key_resp_2.keys,key_resp_2.rt,key_resp_2.started,key_resp_2.stopped,feedbackText.started,feedbackText.stopped,text.started,text.stopped,key_resp_3.keys,key_resp_3.started,key_resp_3.stopped,text_4.started,text_4.stopped,key_resp_7.keys,key_resp_7.rt,key_resp_7.started,key_resp_7.stopped,option1_2.started,option1_2.stopped,option2_2.started,option2_2.stopped,text_5.started,text_5.stopped,t0,t1,t2,t3,t4,t5,t6,t7,t8,t9,t10,t11,t12,t13,displayPicture_3.started,displayPicture_3.stopped,polygon_13.started,polygon_13.stopped,polygon_7.started,polygon_7.stopped,option1_t1_2.started,option1_t1_2.stopped,key_resp_6.keys,key_resp_6.rt,key_resp_6.started,key_resp_6.stopped,polygon_6.started,polygon_6.stopped,option1_t2_2.started,option1_t2_2.stopped,key_resp_5.keys,key_resp_5.rt,key_resp_5.started,key_resp_5.stopped,t14,participant,session,date,expName,psychopyVersion,frameRate,
,,,,,,,,,,,,,,,,,5.82477249999647,None,space,1.125090099987574,5.82477249999647,None,,,,,,,,,,,,,,,,,,,,,,,,,,,,,,,,,,,,,,,,,,,,,,,,,,,,,,,,,,,,,,,,,,,,,,,,,,,,,,,,,,,,,,,,,,,,,,,,,,,,,,,,,001,2021_Mar_17_1147,AB_pic,2020.2.10,59.9777122817278,
AB,lag6,6,5,11,0.2,0.05,0.5,,0,0,0,0,,,,,,,,,,,football.jpg,kiwi03.jpg,ladybug03.jpg,triangle.jpg,parkingmeter.jpg,kneepad01c.jpg,uprightpiano01.jpg,tortoise01.jpg,swordfish.jpg,granolabar01.jpg,squid.jpg,drumstick.jpg,mummy.jpg,nosmokingsign.jpg,cigar.jpg,mouse.jpg,tree.jpg,7.030661299999338,9.780576799996197,7.030661299999338,9.780576799996197,9.513947500003269,None,1,0,13,10.013917699994636,None,10.013917699994636,None,.\resources\squid.jpg,13.513343300000997,None,1,13.513343300000997,None,left,1.0525689000060083,13.513343300000997,None,14.613236699995468,None,1,14.613236699995468,None,right,0.11266230000182986,14.613236699995468,None,14.763256999998703,None,15.763069600003655,None,None,15.763069600003655,None,,,,,,,,,,,,,,,,,,,,,,,,,,,,,,,,,,,,,,,,,,,,,,,,,001,2021_Mar_17_1147,AB_pic,2020.2.10,59.9777122817278,
,,,,,,,,,,,,,,,,,,,,,,,,,,,,,,,,,,,,,,,,,,,,,,,,,,,,,,,,,,,,,,,,,,,,,,,,,,,,,,,15.779733300005319,None,space,1.9846115999971516,15.779733300005319,None,,,,,,,,,,,,,,,,,,,,,,,,,,,,,,,,,,,,,,,,,,,001,2021_Mar_17_1147,AB_pic,2020.2.10,59.9777122817278,
AB,lag6,6,5,11,0.2,0.05,0.5,ramp,,,,,0,0,0,0,,,,,,,swordfish.jpg,nosmokingsign.jpg,uprightpiano01.jpg,toad.jpg,showerhead01.jpg,granolabar01.jpg,kiwi03.jpg,kneepad01c.jpg,microphone01.jpg,tortoise01.jpg,crosscountryski.jpg,butterfly.jpg,pingpongtable.jpg,squid.jpg,cigar.jpg,mummy.jpg,ladybug03.jpg,,,,,,,0,0,13,,,,,.\resources\crosscountryski.jpg,,,0,,,,,,,,,1,,,,,,,,,25.512393000003065,None,None,25.512393000003065,None,,,,,,,17.846614499998395,20.596204400004353,17.846614499998395,20.596204400004353,20.329406299992115,None,0.2659457999980077,0.5159243999951286,0.7659077999996953,1.0158923999988474,1.2658756000018911,1.5158694999990985,1.7658365999959642,2.015832999997656,2.2658134999946924,2.5158064999995986,2.7658111000055214,3.01580589999503,3.265744200005429,3.515761600006954,20.82935250000446,None,20.82935250000446,None,24.34584559999348,None,24.34584559999348,None,right,0.9720502999989549,24.34584559999348,None,25.362419600001886,None,25.362419600001886,None,right,0.12349869999161456,25.362419600001886,None,,,001,2021_Mar_17_1147,AB_pic,2020.2.10,59.9777122817278,
AB,lag4,4,4,8,0.193334,0.05,0.48,ramp,,,,,0,1,1,1,,,,,,,pingpongtable.jpg,cigar.jpg,skunk.jpg,microphone01.jpg,crosscountryski.jpg,butterfly.jpg,mouse.jpg,platypus.jpg,ladybug03.jpg,tortoise01.jpg,showerhead01.jpg,football.jpg,basketball01.jpg,bathtub.jpg,fireplace.jpg,drumstick.jpg,tree.jpg,,,,,,,0,1,10,,,,,.\resources\platypus.jpg,,,0,,,,,,,,,0,,,,,,,,,32.29529760000005,None,None,32.29529760000005,None,,,,,,,25.529098400002113,28.278894100003527,25.529098400002113,28.278894100003527,28.01224129999173,None,0.247780599995167,0.4978030000056606,0.7311297999985982,0.981046899993089,1.231084600003669,1.4643610999919474,1.714347999994061,1.947661700003664,2.1976489999942714,2.4476511999964714,2.6809603000001516,,,,28.51218869999866,None,28.51218869999866,None,31.212193799990928,None,31.212193799990928,None,right,0.8576409999950556,31.212193799990928,None,32.11209779999626,None,32.11209779999626,None,left,0.16586570000799838,32.11209779999626,None,,,001,2021_Mar_17_1147,AB_pic,2020.2.10,59.9777122817278,
AB,lag7,7,4,11,0.186668,0.05,0.45999999999999996,ramp,,,,,0,2,2,2,,,,,,,mouse.jpg,toad.jpg,butterfly.jpg,pingpongtable.jpg,tree.jpg,tortoise01.jpg,swordfish.jpg,parkingmeter.jpg,kiwi03.jpg,cigar.jpg,uprightpiano01.jpg,drumstick.jpg,fireplace.jpg,crosscountryski.jpg,mummy.jpg,basketball01.jpg,triangle.jpg,,,,,,,1,0,13,,,,,.\resources\uprightpiano01.jpg,,,1,,,,,,,,,1,,,,,,,,,39.82810309999913,None,None,39.82810309999913,None,,,,,,,32.31198210000002,35.06173370000033,32.31198210000002,35.06173370000033,34.79508959999657,None,0.2484455999947386,0.4813655999896582,0.7151160999928834,0.9479874999960884,1.1979534999991301,1.4312499999941792,1.664578799987794,1.8979147999925772,2.1312176999927033,2.3812029999971855,2.6145124999893596,2.8479041999962647,3.0812116999877617,3.3146378999954322,35.29506499999843,None,35.29506499999843,None,38.628181799998856,None,38.628181799998856,None,left,0.8336421999993036,38.628181799998856,None,39.494785999995656,None,39.494785999995656,None,right,0.3110801000002539,39.494785999995656,None,,,001,2021_Mar_17_1147,AB_pic,2020.2.10,59.9777122817278,
AB,lag5,5,5,10,0.180002,0.05,0.43999999999999995,ramp,,,,,0,3,3,3,,,,,,,mouse.jpg,toad.jpg,triangle.jpg,basketball01.jpg,tortoise01.jpg,bathtub.jpg,swordfish.jpg,parkingmeter.jpg,pingpongtable.jpg,granolabar01.jpg,cigar.jpg,microphone01.jpg,kneepad01c.jpg,crosscountryski.jpg,showerhead01.jpg,squid.jpg,uprightpiano01.jpg,,,,,,,0,1,12,,,,,.\resources\granolabar01.jpg,,,0,,,,,,,,,0,,,,,,,,,47.01093229999824,None,None,47.01093229999824,None,,,,,,,39.84475669999665,42.595030399999814,39.84475669999665,42.595030399999814,42.32837499999732,None,0.23124149999057408,0.46397529999376275,0.697287699993467,0.9305385999905411,1.1638346999970963,1.3805206999968505,1.6138412000000244,1.8471146999945631,2.0804588999890257,2.3137839999981225,2.5304362999886507,2.7637448999885237,2.997059499990428,,42.82790269999532,None,42.82790269999532,None,45.844502699997975,None,45.844502699997975,None,right,1.0014567999896826,45.844502699997975,None,46.894270000004326,None,46.894270000004326,None,left,0.09574109999812208,46.894270000004326,None,,,001,2021_Mar_17_1147,AB_pic,2020.2.10,59.9777122817278,
AB,lag2,2,3,5,0.173336,0.05,0.41999999999999993,ramp,,,,,0,4,4,4,,,,,,,granolabar01.jpg,nosmokingsign.jpg,microphone01.jpg,drumstick.jpg,tree.jpg,tortoise01.jpg,rose.jpg,kneepad01c.jpg,squid.jpg,crosscountryski.jpg,jellybean.jpg,fireplace.jpg,parkingmeter.jpg,triangle.jpg,kiwi03.jpg,platypus.jpg,toad.jpg,,,,,,,1,1,7,,,,,.\resources\tree.jpg,,,1,,,,,,,,,0,,,,,,,,,53.12726450000482,None,None,53.12726450000482,None,,,,,,,47.02760010000202,49.77782039999147,47.02760010000202,49.77782039999147,49.511168400000315,None,0.23154839999915566,0.44816200000059325,0.681464599998435,0.8981215999956476,1.130997500004014,1.3476681000029203,1.5643249999993714,1.7976703000022098,,,,,,,50.010734800001956,None,50.010734800001956,None,51.827313699992374,None,51.827313699992374,None,left,1.0425236000010045,51.827313699992374,None,52.893896399997175,None,52.893896399997175,None,left,0.21594850000110455,52.893896399997175,None,,,001,2021_Mar_17_1147,AB_pic,2020.2.10,59.9777122817278,
AB,lag3,3,5,8,0.16666999999999998,0.05,0.3999999999999999,ramp,,,,,0,5,5,5,,,,,,,football.jpg,crosscountryski.jpg,microphone01.jpg,kneepad01c.jpg,pingpongtable.jpg,parkingmeter.jpg,mummy.jpg,rose.jpg,nosmokingsign.jpg,basketball01.jpg,squid.jpg,triangle.jpg,cigar.jpg,drumstick.jpg,granolabar01.jpg,uprightpiano01.jpg,tree.jpg,,,,,,,0,1,10,,,,,.\resources\rose.jpg,,,0,,,,,,,,,0,,,,,,,,,59.54347319999069,None,None,59.54347319999069,None,,,,,,,53.14402550000523,55.89414000000397,53.14402550000523,55.89414000000397,55.627519799993024,None,0.23091549999662675,0.44755179999629036,0.6642166000092402,0.8808792000054382,1.097575699997833,1.314212099998258,1.5308371999999508,1.7474909000011394,1.9641253000008874,2.1808402000024216,2.3974638000072446,,,,56.12701169999491,None,56.12701169999491,None,58.543602299992926,None,58.543602299992926,None,right,0.7822385000035865,58.543602299992926,None,59.36032809999597,None,59.36032809999597,None,left,0.16550350000034086,59.36032809999597,None,,,001,2021_Mar_17_1147,AB_pic,2020.2.10,59.9777122817278,
AB,lag1,1,4,5,0.16000399999999998,0.05,0.3799999999999999,ramp,,,,,0,6,6,6,,,,,,,tree.jpg,toad.jpg,butterfly.jpg,squid.jpg,kneepad01c.jpg,parkingmeter.jpg,crosscountryski.jpg,skunk.jpg,fireplace.jpg,mouse.jpg,kiwi03.jpg,basketball01.jpg,showerhead01.jpg,mummy.jpg,ladybug03.jpg,triangle.jpg,pingpongtable.jpg,,,,,,,0,1,7,,,,,.\resources\kneepad01c.jpg,,,0,,,,,,,,,0,,,,,,,,,65.5930766000005,None,None,65.5930766000005,None,,,,,,,59.56014729999879,62.310387899997295,59.56014729999879,62.310387899997295,62.04329919999873,None,0.21448739999323152,0.4316352000023471,0.6311157000018284,0.8478054000006523,1.0644844999915222,1.2644042999891099,1.4810418999986723,1.681017900002189,,,,,,,62.54327189999458,None,62.54327189999458,None,64.24330309999641,None,64.24330309999641,None,right,1.0425014999927953,64.24330309999641,None,65.3264147000009,None,65.3264147000009,None,left,0.23938990000169724,65.3264147000009,None,,,001,2021_Mar_17_1147,AB_pic,2020.2.10,59.9777122817278,
AB,lag6,6,5,11,0.15333799999999997,0.05,0.3599999999999999,ramp,,,,,0,7,7,7,,,,,,,toad.jpg,fireplace.jpg,swordfish.jpg,tree.jpg,kiwi03.jpg,cigar.jpg,tortoise01.jpg,showerhead01.jpg,rose.jpg,crosscountryski.jpg,platypus.jpg,mummy.jpg,jellybean.jpg,ladybug03.jpg,drumstick.jpg,granolabar01.jpg,squid.jpg,,,,,,,0,0,13,,,,,.\resources\platypus.jpg,,,0,,,,,,,,,1,,,,,,,,,72.1259664000012,None,None,72.1259664000012,None,,,,,,,65.60987450000539,68.35955490000197,65.60987450000539,68.35955490000197,68.09295789999305,None,0.21466640000289772,0.4146656999946572,0.6146551999991061,0.8146198000031291,1.0312937999988208,1.2312803999957396,1.4312881999940146,1.63128419998975,1.8312251000024844,2.047881699996651,2.2478235000016866,2.4478175999975065,2.647881500000949,2.84782599999744,68.59292379999533,None,68.59292379999533,None,71.4593501999916,None,71.4593501999916,None,right,0.4584700999985216,71.4593501999916,None,71.95955479999247,None,71.95955479999247,None,right,0.15026390001003165,71.95955479999247,None,,,001,2021_Mar_17_1147,AB_pic,2020.2.10,59.9777122817278,
AB,lag3,3,4,7,0.14667199999999997,0.05,0.33999999999999986,ramp,,,,,0,8,8,8,,,,,,,mummy.jpg,tree.jpg,tortoise01.jpg,pingpongtable.jpg,jellybean.jpg,swordfish.jpg,squid.jpg,uprightpiano01.jpg,basketball01.jpg,drumstick.jpg,showerhead01.jpg,bathtub.jpg,toad.jpg,granolabar01.jpg,fireplace.jpg,kiwi03.jpg,platypus.jpg,,,,,,,0,0,9,,,,,.\resources\squid.jpg,,,0,,,,,,,,,1,,,,,,,,,77.84221379999363,None,None,77.84221379999363,None,,,,,,,72.14264959999127,74.89288169999782,72.14264959999127,74.89288169999782,74.62623460000032,None,0.19789890000538435,0.39786940001067705,0.5978496000025189,0.7978418999991845,0.9977868999994826,1.1811319000116782,1.3811009000055492,1.5810702000017045,1.7810277000098722,1.9810510000097565,,,,,75.12581630000204,None,75.12581630000204,None,77.12576880000415,None,77.12576880000415,None,right,0.5280437000037637,77.12576880000415,None,77.69241299999703,None,77.69241299999703,None,right,0.12136350000218954,77.69241299999703,None,,,001,2021_Mar_17_1147,AB_pic,2020.2.10,59.9777122817278,
AB,lag4,4,4,8,0.14000599999999996,0.05,0.31999999999999984,ramp,,,,,0,9,9,9,,,,,,,football.jpg,pingpongtable.jpg,microphone01.jpg,squid.jpg,skunk.jpg,basketball01.jpg,showerhead01.jpg,triangle.jpg,cigar.jpg,drumstick.jpg,crosscountryski.jpg,ladybug03.jpg,parkingmeter.jpg,tree.jpg,jellybean.jpg,butterfly.jpg,mouse.jpg,,,,,,,0,1,10,,,,,.\resources\triangle.jpg,,,0,,,,,,,,,0,,,,,,,,,84.04182079999592,None,None,84.04182079999592,None,,,,,,,77.85908320000453,80.60918980000133,77.85908320000453,80.60918980000133,80.34252979999292,None,0.19766060000983998,0.3805416000104742,0.5805183000047691,0.7639558000082616,0.9638324999978067,1.1471445000061067,1.3305191000108607,1.5305517000088003,1.7137872000021162,1.9137625000003027,2.097103000007337,,,,80.85916169999109,None,80.85916169999109,None,82.95858679999947,None,82.95858679999947,None,right,0.8471694999898318,82.95858679999947,None,83.84188059999724,None,83.84188059999724,None,left,0.17989410000154749,83.84188059999724,None,,,001,2021_Mar_17_1147,AB_pic,2020.2.10,59.9777122817278,
AB,lag5,5,4,9,0.13333999999999996,0.05,0.2999999999999998,ramp,,,,,0,10,10,10,,,,,,,swordfish.jpg,granolabar01.jpg,nosmokingsign.jpg,showerhead01.jpg,uprightpiano01.jpg,rose.jpg,tortoise01.jpg,platypus.jpg,kiwi03.jpg,basketball01.jpg,cigar.jpg,triangle.jpg,microphone01.jpg,fireplace.jpg,toad.jpg,tree.jpg,mummy.jpg,,,,,,,0,0,11,,,,,.\resources\kiwi03.jpg,,,0,,,,,,,,,1,,,,,,,,,90.77470549999853,None,None,90.77470549999853,None,,,,,,,84.05848979999428,86.80833469999197,84.05848979999428,86.80833469999197,86.5416622000048,None,0.19791390000318643,0.38123119999363553,0.5645895000052406,0.7479126999969594,0.9311882000038167,1.114523399999598,1.2978395999962231,1.48115069999767,1.6644744999939576,1.8477877999976045,2.031123900000239,2.214457299996866,,,87.04166170000099,None,87.04166170000099,None,89.27487239999755,None,89.27487239999755,None,right,1.266880700000911,89.27487239999755,None,90.57473500000197,None,90.57473500000197,None,right,0.17505150000215508,90.57473500000197,None,,,001,2021_Mar_17_1147,AB_pic,2020.2.10,59.9777122817278,
AB,lag2,2,3,5,0.12667399999999995,0.05,0.2799999999999998,ramp,,,,,0,11,11,11,,,,,,,granolabar01.jpg,parkingmeter.jpg,squid.jpg,mummy.jpg,toad.jpg,fireplace.jpg,mouse.jpg,tortoise01.jpg,uprightpiano01.jpg,swordfish.jpg,skunk.jpg,jellybean.jpg,triangle.jpg,tree.jpg,microphone01.jpg,butterfly.jpg,crosscountryski.jpg,,,,,,,1,0,7,,,,,.\resources\toad.jpg,,,1,,,,,,,,,1,,,,,,,,,98.74088010000415,None,None,98.74088010000415,None,,,,,,,90.79137370000535,93.54119590000482,90.79137370000535,93.54119590000482,93.27459010000166,None,0.18102980000548996,0.364341600012267,0.5310178000072483,0.7143538000091212,0.8976667000097223,1.0643612000130815,1.2476316000102088,1.4142771000042558,,,,,,,93.7745389000047,None,93.7745389000047,None,95.20774889999302,None,95.20774889999302,None,left,3.27806490000512,95.20774889999302,None,98.52439229999436,None,98.52439229999436,None,right,0.1853687999973772,98.52439229999436,None,,,001,2021_Mar_17_1147,AB_pic,2020.2.10,59.9777122817278,
AB,lag1,1,4,5,0.12000799999999995,0.05,0.2599999999999998,ramp,,,,,0,12,12,12,,,,,,,pingpongtable.jpg,toad.jpg,microphone01.jpg,kiwi03.jpg,ladybug03.jpg,kneepad01c.jpg,football.jpg,platypus.jpg,fireplace.jpg,granolabar01.jpg,showerhead01.jpg,basketball01.jpg,tortoise01.jpg,mummy.jpg,squid.jpg,parkingmeter.jpg,nosmokingsign.jpg,,,,,,,1,0,7,,,,,.\resources\ladybug03.jpg,,,1,,,,,,,,,1,,,,,,,,,105.35706879999489,None,None,105.35706879999489,None,,,,,,,98.75755029999709,101.50780429999577,98.75755029999709,101.50780429999577,101.24114840000402,None,0.18179139999847393,0.3484059999900637,0.5146100999991177,0.681286099992576,0.8646016999991843,1.0312476999970386,1.1979174000007333,1.3645686999952886,,,,,,,101.74070650000067,None,101.74070650000067,None,103.12393859999429,None,103.12393859999429,None,left,1.0578322999936063,103.12393859999429,None,104.22382469999138,None,104.22382469999138,None,left,1.109973300001002,104.22382469999138,None,,,001,2021_Mar_17_1147,AB_pic,2020.2.10,59.9777122817278,
AB,lag7,7,5,12,0.11334199999999994,0.05,0.2399999999999998,ramp,,,,,0,13,13,13,,,,,,,mummy.jpg,toad.jpg,uprightpiano01.jpg,cigar.jpg,crosscountryski.jpg,skunk.jpg,tortoise01.jpg,platypus.jpg,parkingmeter.jpg,mouse.jpg,bathtub.jpg,drumstick.jpg,nosmokingsign.jpg,fireplace.jpg,butterfly.jpg,granolabar01.jpg,basketball01.jpg,,,,,,,1,0,14,,,,,.\resources\drumstick.jpg,,,1,,,,,,,,,1,,,,,,,,,111.62334319999209,None,None,111.62334319999209,None,,,,,,,105.37375349999638,108.12359479999577,105.37375349999638,108.12359479999577,107.85693629999878,None,0.16417509999882895,0.33080060000065714,0.49751370000012685,0.6641346999967936,0.8308431999903405,0.9807943999912823,1.1475111999898218,1.3141217999946093,1.480825399994501,1.647417799991672,1.7975204999966081,1.9640918999939458,2.1307591999939177,2.297420000002603,108.3569095999992,None,108.3569095999992,None,110.8401087999955,None,110.8401087999955,None,left,0.6296901000023354,110.8401087999955,None,111.50670529999479,None,111.50670529999479,None,right,0.09131019999040291,111.50670529999479,None,2.4640534999925876,,001,2021_Mar_17_1147,AB_pic,2020.2.10,59.9777122817278,
AB,lag1,1,3,4,0.10667599999999994,0.05,0.2199999999999998,ramp,,,,,0,14,14,14,,,,,,,toad.jpg,triangle.jpg,swordfish.jpg,kiwi03.jpg,jellybean.jpg,microphone01.jpg,tortoise01.jpg,butterfly.jpg,skunk.jpg,mummy.jpg,crosscountryski.jpg,tree.jpg,squid.jpg,platypus.jpg,bathtub.jpg,football.jpg,showerhead01.jpg,,,,,,,0,0,6,,,,,.\resources\kiwi03.jpg,,,0,,,,,,,,,1,,,,,,,,,117.9896156999952,None,None,117.9896156999952,None,,,,,,,111.6401632999914,114.39028160000453,111.6401632999914,114.39028160000453,114.12386720000359,None,0.163641799998004,0.3140595000004396,0.48070700000971556,0.6302896999986842,0.7969486000074539,0.9469226000073832,1.096924299999955,,,,,,,,114.62316659999487,None,114.62316659999487,None,115.73976799999946,None,115.73976799999946,None,right,1.2020489999995334,115.73976799999946,None,116.98967369999446,None,116.98967369999446,None,left,0.9841718000097899,116.98967369999446,None,,,001,2021_Mar_17_1147,AB_pic,2020.2.10,59.9777122817278,
AB,lag6,6,5,11,0.1,0.05,0.2,main,,,,,0,15,15,15,,,,,,,basketball01.jpg,ladybug03.jpg,drumstick.jpg,parkingmeter.jpg,showerhead01.jpg,granolabar01.jpg,bathtub.jpg,tortoise01.jpg,nosmokingsign.jpg,swordfish.jpg,kiwi03.jpg,tree.jpg,football.jpg,skunk.jpg,platypus.jpg,microphone01.jpg,triangle.jpg,,,,,,,0,0,13,,,,,.\resources\kiwi03.jpg,,,0,,,,,,,,,1,,,,,,,,,123.70590500000108,None,None,123.70590500000108,None,,,,,,,118.00631709999288,120.75651449999714,118.00631709999288,120.75651449999714,120.48989509999228,None,0.16376680000394117,0.3137628999975277,0.4637753999995766,0.6137273000058485,0.763713899999857,0.9137166000000434,1.0637051000085194,1.2136806000053184,1.363688400000683,1.513669200008735,1.6636713000043528,1.8136610000074143,1.963653200000408,2.113688800003729,120.98940779999248,None,120.98940779999248,None,123.12265269999625,None,123.12265269999625,None,right,0.40313659999810625,123.12265269999625,None,123.57258989999536,None,123.57258989999536,None,right,0.11314269999274984,123.57258989999536,None,,,001,2021_Mar_17_1147,AB_pic,2020.2.10,59.9777122817278,
AB,lag1,1,5,6,0.1,0.05,0.2,main,,,,,0,16,16,16,,,,,,,kneepad01c.jpg,mummy.jpg,parkingmeter.jpg,pingpongtable.jpg,ladybug03.jpg,mouse.jpg,microphone01.jpg,butterfly.jpg,squid.jpg,skunk.jpg,uprightpiano01.jpg,football.jpg,triangle.jpg,rose.jpg,drumstick.jpg,crosscountryski.jpg,kiwi03.jpg,,,,,,,0,1,8,,,,,.\resources\mouse.jpg,,,0,,,,,,,,,0,,,,,,,,,129.75547179999413,None,None,129.75547179999413,None,,,,,,,123.72256019999622,126.47281439999642,123.72256019999622,126.47281439999642,126.20616639999207,None,0.1647994000086328,0.3149591999972472,0.4643514000053983,0.6143355000094743,0.7643257000017911,0.9143375999992713,1.064306400003261,1.2142900000035297,1.3642916999961017,,,,,,126.70570130000124,None,126.70570130000124,None,128.08909850000055,None,128.08909850000055,None,right,1.3406669000105467,128.08909850000055,None,129.472311599995,None,129.472311599995,None,left,0.26150950000737794,129.472311599995,None,,,001,2021_Mar_17_1147,AB_pic,2020.2.10,59.9777122817278,
AB,lag5,5,3,8,0.1,0.05,0.2,main,,,,,0,17,17,17,,,,,,,fireplace.jpg,squid.jpg,uprightpiano01.jpg,microphone01.jpg,tortoise01.jpg,bathtub.jpg,mummy.jpg,swordfish.jpg,triangle.jpg,football.jpg,skunk.jpg,butterfly.jpg,cigar.jpg,basketball01.jpg,nosmokingsign.jpg,kneepad01c.jpg,rose.jpg,,,,,,,0,0,10,,,,,.\resources\swordfish.jpg,,,0,,,,,,,,,1,,,,,,,,,135.1384149999998,None,None,135.1384149999998,None,,,,,,,129.77212829999917,132.52247529999295,129.77212829999917,132.52247529999295,132.25576269999146,None,0.1647438000072725,0.3142651000089245,0.4642525000090245,0.6142800000088755,0.7642345000058413,0.9143104999966454,1.0642699000018183,1.2142834999976913,1.3642513000086183,1.5142291000083787,1.6641766999964602,,,,132.75527310000325,None,132.75527310000325,None,134.43862899999658,None,134.43862899999658,None,right,0.47913120000157505,134.43862899999658,None,134.95527419999416,None,134.95527419999416,None,right,0.16243360000953544,134.95527419999416,None,,,001,2021_Mar_17_1147,AB_pic,2020.2.10,59.9777122817278,
AB,lag3,3,4,7,0.1,0.05,0.2,main,,,,,0,18,18,18,,,,,,,cigar.jpg,mouse.jpg,tortoise01.jpg,skunk.jpg,fireplace.jpg,kneepad01c.jpg,showerhead01.jpg,rose.jpg,drumstick.jpg,football.jpg,mummy.jpg,granolabar01.jpg,bathtub.jpg,jellybean.jpg,pingpongtable.jpg,nosmokingsign.jpg,triangle.jpg,,,,,,,0,1,9,,,,,.\resources\showerhead01.jpg,,,0,,,,,,,,,0,,,,,,,,,140.83806139999652,None,None,140.83806139999652,None,,,,,,,135.15509260000545,137.90536550000252,135.15509260000545,137.90536550000252,137.63869429999613,None,0.16499299999850336,0.315036300002248,0.46503230000962503,0.6150332000106573,0.7649791000003461,0.9150554000079865,1.0645835000032093,1.2146077000070363,1.3645564000034938,1.5145450999989407,,,,,138.1382583999948,None,138.1382583999948,None,139.67162490000192,None,139.67162490000192,None,right,0.9184169999934966,139.67162490000192,None,140.63809449999826,None,140.63809449999826,None,left,0.18363110000791494,140.63809449999826,None,,,001,2021_Mar_17_1147,AB_pic,2020.2.10,59.9777122817278,
AB,lag2,2,5,7,0.1,0.05,0.2,main,,,,,0,19,19,19,,,,,,,drumstick.jpg,nosmokingsign.jpg,cigar.jpg,triangle.jpg,kiwi03.jpg,kneepad01c.jpg,jellybean.jpg,uprightpiano01.jpg,bathtub.jpg,tree.jpg,basketball01.jpg,football.jpg,butterfly.jpg,squid.jpg,toad.jpg,rose.jpg,tortoise01.jpg,,,,,,,0,1,9,,,,,.\resources\jellybean.jpg,,,0,,,,,,,,,0,,,,,,,,,146.80432800000418,None,None,146.80432800000418,None,,,,,,,140.85492379999778,143.60498989999178,140.85492379999778,143.60498989999178,143.33832059999986,None,0.16462969999702182,0.3142569000046933,0.46427979999862146,0.6142317000048934,0.7642201999988174,0.9142076999996789,1.0642666999920039,1.214168199992855,1.364159100005054,1.5141561000054935,,,,,143.83787309999752,None,143.83787309999752,None,145.37111500000174,None,145.37111500000174,None,right,1.2026979999936884,145.37111500000174,None,146.62112809999962,None,146.62112809999962,None,left,0.16070389999367762,146.62112809999962,None,,,001,2021_Mar_17_1147,AB_pic,2020.2.10,59.9777122817278,
AB,lag4,4,3,7,0.1,0.05,0.2,main,,,,,0,20,20,20,,,,,,,toad.jpg,basketball01.jpg,uprightpiano01.jpg,cigar.jpg,triangle.jpg,drumstick.jpg,crosscountryski.jpg,showerhead01.jpg,swordfish.jpg,skunk.jpg,squid.jpg,rose.jpg,jellybean.jpg,kiwi03.jpg,tree.jpg,parkingmeter.jpg,kneepad01c.jpg,,,,,,,0,1,9,,,,,.\resources\crosscountryski.jpg,,,0,,,,,,,,,0,,,,,,,,,152.37063359999448,None,None,152.37063359999448,None,,,,,,,146.82101250000414,149.57122959999833,146.82101250000414,149.57122959999833,149.30459519999567,None,0.1643666000018129,0.3143524999904912,0.4639442999905441,0.6139118999999482,0.7638838999992004,0.9138897999946494,1.0638733999949181,1.21385790000204,1.363847499989788,1.5139087999996264,,,,,149.8041441999958,None,149.8041441999958,None,151.33741059999738,None,151.33741059999738,None,right,0.8044309999968391,151.33741059999738,None,152.17064019999816,None,152.17064019999816,None,left,0.17922760000510607,152.17064019999816,None,,,001,2021_Mar_17_1147,AB_pic,2020.2.10,59.9777122817278,
AB,lag7,7,5,12,0.1,0.05,0.2,main,,,,,0,21,21,21,,,,,,,kiwi03.jpg,crosscountryski.jpg,showerhead01.jpg,jellybean.jpg,platypus.jpg,fireplace.jpg,parkingmeter.jpg,mouse.jpg,mummy.jpg,microphone01.jpg,butterfly.jpg,ladybug03.jpg,swordfish.jpg,tree.jpg,pingpongtable.jpg,bathtub.jpg,kneepad01c.jpg,,,,,,,0,0,14,,,,,.\resources\ladybug03.jpg,,,0,,,,,,,,,1,,,,,,,,,158.3369097000017,None,None,158.3369097000017,None,,,,,,,152.38743999999133,155.13716539999587,152.38743999999133,155.13716539999587,154.87097560000257,None,0.1646720999997342,0.31465250000474043,0.4646350000111852,0.6146235000051092,0.7646144000027562,0.9146124000108102,1.0645939000096405,1.2146056000055978,1.3646515000000363,1.5146118000120623,1.6646029000112321,1.8145532000053208,1.9645194000040647,2.114532400009921,155.3705048999982,None,155.3705048999982,None,157.65369569999166,None,157.65369569999166,None,right,0.4560185000009369,157.65369569999166,None,158.15376810000453,None,158.15376810000453,None,right,0.15598850000242237,158.15376810000453,None,2.264554000008502,,001,2021_Mar_17_1147,AB_pic,2020.2.10,59.9777122817278,
AB,lag6,6,5,11,0.1,0.05,0.2,main,,,,,0,22,22,22,,,,,,,kiwi03.jpg,ladybug03.jpg,rose.jpg,nosmokingsign.jpg,butterfly.jpg,parkingmeter.jpg,squid.jpg,bathtub.jpg,toad.jpg,pingpongtable.jpg,football.jpg,triangle.jpg,kneepad01c.jpg,microphone01.jpg,swordfish.jpg,jellybean.jpg,granolabar01.jpg,,,,,,,1,0,13,,,,,.\resources\football.jpg,,,1,,,,,,,,,1,,,,,,,,,165.00313419999148,None,None,165.00313419999148,None,,,,,,,158.3536071999988,161.10342559999845,158.3536071999988,161.10342559999845,160.83677300000272,None,0.16476539999712259,0.31474529999832157,0.4647240000049351,0.6147662000003038,0.7647568999964278,0.914753799996106,1.0647039000032237,1.2146936000062851,1.3646773000073154,1.514705599998706,1.6646839000022737,1.8146638000034727,1.9646367999957874,2.1146298999956343,161.33674689999316,None,161.33674689999316,None,163.4700834999967,None,163.4700834999967,None,left,0.8876197000063257,163.4700834999967,None,164.4032057000004,None,164.4032057000004,None,left,0.5785215999931097,164.4032057000004,None,,,001,2021_Mar_17_1147,AB_pic,2020.2.10,59.9777122817278,
AB,lag7,7,5,12,0.1,0.05,0.2,main,,,,,0,23,23,23,,,,,,,mummy.jpg,microphone01.jpg,butterfly.jpg,jellybean.jpg,kiwi03.jpg,tree.jpg,ladybug03.jpg,rose.jpg,crosscountryski.jpg,drumstick.jpg,platypus.jpg,parkingmeter.jpg,granolabar01.jpg,basketball01.jpg,fireplace.jpg,swordfish.jpg,uprightpiano01.jpg,,,,,,,0,0,14,,,,,.\resources\parkingmeter.jpg,,,0,,,,,,,,,1,,,,,,,,,171.31937989999133,None,None,171.31937989999133,None,,,,,,,165.0198051000043,167.77010480000172,165.0198051000043,167.77010480000172,167.50343240000075,None,0.16376550000859424,0.31375020000268705,0.4637438000063412,0.6137330000055954,0.7636836000019684,0.9136737000080757,1.0637529000086943,1.213666200012085,1.363643000004231,1.5136485000111861,1.663616700010607,1.813586700009182,1.9636275000084424,2.113615700000082,168.00297269999282,None,168.00297269999282,None,170.2861605999933,None,170.2861605999933,None,right,0.759665399993537,170.2861605999933,None,171.0694133999932,None,171.0694133999932,None,right,0.2324609000061173,171.0694133999932,None,2.2635757000098238,,001,2021_Mar_17_1147,AB_pic,2020.2.10,59.9777122817278,
AB,lag5,5,3,8,0.1,0.05,0.2,main,,,,,0,24,24,24,,,,,,,microphone01.jpg,bathtub.jpg,rose.jpg,fireplace.jpg,drumstick.jpg,uprightpiano01.jpg,toad.jpg,mummy.jpg,tortoise01.jpg,ladybug03.jpg,tree.jpg,football.jpg,crosscountryski.jpg,parkingmeter.jpg,squid.jpg,granolabar01.jpg,showerhead01.jpg,,,,,,,1,0,10,,,,,.\resources\mummy.jpg,,,1,,,,,,,,,1,,,,,,,,,177.4690074000013,None,None,177.4690074000013,None,,,,,,,171.33604670000204,174.08630609999818,171.33604670000204,174.08630609999818,173.81965449999552,None,0.16405689998646267,0.3140545999922324,0.4640134999935981,0.6140121999924304,0.7639952999888919,0.9135674999997718,1.0635855000000447,1.2135613999998895,1.3635363999928813,1.5135541999916313,1.6635176999989199,,,,174.31923179999285,None,174.31923179999285,None,176.00240919999487,None,176.00240919999487,None,left,1.2594318999908864,176.00240919999487,None,177.30232519999845,None,177.30232519999845,None,right,0.13553420000243932,177.30232519999845,None,,,001,2021_Mar_17_1147,AB_pic,2020.2.10,59.9777122817278,
AB,lag3,3,3,6,0.1,0.05,0.2,main,,,,,0,25,25,25,,,,,,,showerhead01.jpg,nosmokingsign.jpg,toad.jpg,rose.jpg,squid.jpg,ladybug03.jpg,uprightpiano01.jpg,platypus.jpg,crosscountryski.jpg,parkingmeter.jpg,cigar.jpg,butterfly.jpg,tortoise01.jpg,tree.jpg,football.jpg,microphone01.jpg,fireplace.jpg,,,,,,,0,1,8,,,,,.\resources\ladybug03.jpg,,,0,,,,,,,,,0,,,,,,,,,183.71865269999253,None,None,183.71865269999253,None,,,,,,,177.48565529999905,180.2359085999924,177.48565529999905,180.2359085999924,179.96884620000492,None,0.1638299000042025,0.31377969999448396,0.46333030000096187,0.6137591000006068,0.7633497999922838,0.9133201999939047,1.0633040999964578,1.2132994999992661,1.3632955999928527,,,,,,180.4859046999918,None,180.4859046999918,None,181.85204909999447,None,181.85204909999447,None,right,1.113714200007962,181.85204909999447,None,183.0021201000054,None,183.0021201000054,None,left,0.6998144000099273,183.0021201000054,None,,,001,2021_Mar_17_1147,AB_pic,2020.2.10,59.9777122817278,
AB,lag2,2,3,5,0.1,0.05,0.2,main,,,,,0,26,26,26,,,,,,,swordfish.jpg,jellybean.jpg,kneepad01c.jpg,showerhead01.jpg,uprightpiano01.jpg,basketball01.jpg,kiwi03.jpg,drumstick.jpg,triangle.jpg,microphone01.jpg,mummy.jpg,pingpongtable.jpg,rose.jpg,fireplace.jpg,parkingmeter.jpg,ladybug03.jpg,cigar.jpg,,,,,,,1,0,7,,,,,.\resources\uprightpiano01.jpg,,,1,,,,,,,,,1,,,,,,,,,189.30156389999902,None,None,189.30156389999902,None,,,,,,,183.73525460000383,186.4854614999931,183.73525460000383,186.4854614999931,186.21886700000323,None,0.16393460000108462,0.3139032000035513,0.46349939999345224,0.613516500001424,0.7634927000035532,0.9134922999946866,1.063452000002144,1.2134657999995397,,,,,,,186.73548129999836,None,186.73548129999836,None,187.95165010000346,None,187.95165010000346,None,left,1.062255600001663,187.95165010000346,None,189.05170519999228,None,189.05170519999228,None,left,0.218133599992143,189.05170519999228,None,,,001,2021_Mar_17_1147,AB_pic,2020.2.10,59.9777122817278,
AB,lag1,1,5,6,0.1,0.05,0.2,main,,,,,0,27,27,27,,,,,,,rose.jpg,butterfly.jpg,skunk.jpg,platypus.jpg,microphone01.jpg,drumstick.jpg,nosmokingsign.jpg,showerhead01.jpg,squid.jpg,kiwi03.jpg,kneepad01c.jpg,tortoise01.jpg,swordfish.jpg,bathtub.jpg,cigar.jpg,ladybug03.jpg,mouse.jpg,,,,,,,0,0,8,,,,,.\resources\drumstick.jpg,,,0,,,,,,,,,1,,,,,,,,,194.71788999999117,None,None,194.71788999999117,None,,,,,,,189.31822620000457,192.0684792999964,189.31822620000457,192.0684792999964,191.80182979999518,None,0.1644077999953879,0.3140157000016188,0.46436030000040773,0.6144003999943379,0.7644088999950327,0.9138979999988806,1.0639221999881556,1.2139276999951107,1.3639173999981722,,,,,,192.30135779999546,None,192.30135779999546,None,193.68463790000533,None,193.68463790000533,None,right,0.7932300999964355,193.68463790000533,None,194.51791569999477,None,194.51791569999477,None,right,0.1838242999947397,194.51791569999477,None,,,001,2021_Mar_17_1147,AB_pic,2020.2.10,59.9777122817278,
AB,lag4,4,5,9,0.1,0.05,0.2,main,,,,,0,28,28,28,,,,,,,basketball01.jpg,mummy.jpg,granolabar01.jpg,platypus.jpg,ladybug03.jpg,rose.jpg,uprightpiano01.jpg,drumstick.jpg,swordfish.jpg,fireplace.jpg,showerhead01.jpg,parkingmeter.jpg,cigar.jpg,butterfly.jpg,nosmokingsign.jpg,skunk.jpg,football.jpg,,,,,,,0,1,11,,,,,.\resources\swordfish.jpg,,,0,,,,,,,,,0,,,,,,,,,200.88413789999905,None,None,200.88413789999905,None,,,,,,,194.73455249999824,197.48479600000428,194.73455249999824,197.48479600000428,197.2181367000012,None,0.16484339999442454,0.3147846999927424,0.4643395999883069,0.6143449999945005,0.7643525999883423,0.9143444999936037,1.0642817999905674,1.2142724000004819,1.3643601999938255,1.5143133999954443,1.6642730000021402,1.814274899996235,,,197.71767569999793,None,197.71767569999793,None,199.550923399991,None,199.550923399991,None,right,0.8947982999961823,199.550923399991,None,200.48416279999947,None,200.48416279999947,None,left,0.3695582999935141,200.48416279999947,None,,,001,2021_Mar_17_1147,AB_pic,2020.2.10,59.9777122817278,
AB,lag3,3,4,7,0.1,0.05,0.2,main,,,,,0,29,29,29,,,,,,,parkingmeter.jpg,microphone01.jpg,butterfly.jpg,uprightpiano01.jpg,mouse.jpg,skunk.jpg,mummy.jpg,swordfish.jpg,granolabar01.jpg,squid.jpg,platypus.jpg,toad.jpg,tree.jpg,kneepad01c.jpg,ladybug03.jpg,crosscountryski.jpg,fireplace.jpg,,,,,,,0,1,9,,,,,.\resources\mummy.jpg,,,0,,,,,,,,,0,,,,,,,,,209.13355839999568,None,None,209.13355839999568,None,,,,,,,200.90081540000392,203.6510588999954,200.90081540000392,203.6510588999954,203.38439949999156,None,0.16441949999716599,0.313833699998213,0.46379029999661725,0.6137860000017099,0.7638186999975005,0.9138348999986192,1.0637737000070047,1.213803899998311,1.3637405000044964,1.5137596999993548,,,,,203.88395679999667,None,203.88395679999667,None,205.41738460000488,None,205.41738460000488,None,right,1.4523136999923736,205.41738460000488,None,206.91705760000332,None,206.91705760000332,None,left,2.2007348999904934,206.91705760000332,None,,,001,2021_Mar_17_1147,AB_pic,2020.2.10,59.9777122817278,
AB,lag1,1,4,5,0.1,0.05,0.2,main,,,,,0,30,30,30,,,,,,,tree.jpg,crosscountryski.jpg,granolabar01.jpg,cigar.jpg,basketball01.jpg,pingpongtable.jpg,toad.jpg,tortoise01.jpg,ladybug03.jpg,mouse.jpg,rose.jpg,jellybean.jpg,butterfly.jpg,football.jpg,kiwi03.jpg,swordfish.jpg,triangle.jpg,,,,,,,0,0,7,,,,,.\resources\basketball01.jpg,,,0,,,,,,,,,1,,,,,,,,,215.29985499999603,None,None,215.29985499999603,None,,,,,,,209.1502579999942,211.9004600000044,209.1502579999942,211.9004600000044,211.6338323999953,None,0.16415779999806546,0.3142004999972414,0.4640954999922542,0.6140916000003926,0.7641240999946604,0.9141094999940833,1.0636854999902425,1.2137168999906862,,,,,,,212.13341409999703,None,212.13341409999703,None,213.36665349999384,None,213.36665349999384,None,right,1.6150332999968668,213.36665349999384,None,215.01651519999723,None,215.01651519999723,None,right,0.26119619999371935,215.01651519999723,None,,,001,2021_Mar_17_1147,AB_pic,2020.2.10,59.9777122817278,
AB,lag4,4,5,9,0.1,0.05,0.2,main,,,,,0,31,31,31,,,,,,,kneepad01c.jpg,kiwi03.jpg,microphone01.jpg,fireplace.jpg,skunk.jpg,cigar.jpg,showerhead01.jpg,drumstick.jpg,rose.jpg,bathtub.jpg,mouse.jpg,uprightpiano01.jpg,jellybean.jpg,mummy.jpg,ladybug03.jpg,triangle.jpg,nosmokingsign.jpg,,,,,,,0,1,11,,,,,.\resources\rose.jpg,,,0,,,,,,,,,0,,,,,,,,,221.64942929999089,None,None,221.64942929999089,None,,,,,,,215.31652549999126,218.06673269999737,215.31652549999126,218.06673269999737,217.80007319999277,None,0.16468739999982063,0.31472009999561124,0.46465779999562073,0.6146644999971613,0.764650500001153,0.9142316999932518,1.064221799999359,1.2142072999995435,1.3642137999995612,1.5141796999960206,1.6642359999968903,1.8141618999943603,,,218.29962399999204,None,218.29962399999204,None,220.1329826000001,None,220.1329826000001,None,right,1.2887455000018235,220.1329826000001,None,221.4662329999992,None,221.4662329999992,None,left,0.1634976000059396,221.4662329999992,None,,,001,2021_Mar_17_1147,AB_pic,2020.2.10,59.9777122817278,
AB,lag6,6,3,9,0.1,0.05,0.2,main,,,,,0,32,32,32,,,,,,,mouse.jpg,butterfly.jpg,showerhead01.jpg,tree.jpg,microphone01.jpg,triangle.jpg,skunk.jpg,rose.jpg,fireplace.jpg,swordfish.jpg,toad.jpg,basketball01.jpg,ladybug03.jpg,crosscountryski.jpg,granolabar01.jpg,platypus.jpg,kneepad01c.jpg,,,,,,,0,0,11,,,,,.\resources\fireplace.jpg,,,0,,,,,,,,,1,,,,,,,,,228.19900179999823,None,None,228.19900179999823,None,,,,,,,221.66608660000202,224.41626199999882,221.66608660000202,224.41626199999882,224.14963539999735,None,0.16418100000009872,0.3142452000029152,0.4641927000047872,0.6137787000043318,0.7637995999975828,0.9137804000056349,1.063762299992959,1.21379490000254,1.3637946999951964,1.5137529999919934,1.6637163999985205,1.813697299992782,,,224.6492292000039,None,224.6492292000039,None,226.48247950000223,None,226.48247950000223,None,right,0.6032890000060434,226.48247950000223,None,227.132446299991,None,227.132446299991,None,left,1.0412418999912916,227.132446299991,None,,,001,2021_Mar_17_1147,AB_pic,2020.2.10,59.9777122817278,
AB,lag2,2,3,5,0.1,0.05,0.2,main,,,,,0,33,33,33,,,,,,,bathtub.jpg,crosscountryski.jpg,basketball01.jpg,toad.jpg,ladybug03.jpg,showerhead01.jpg,mummy.jpg,triangle.jpg,butterfly.jpg,rose.jpg,uprightpiano01.jpg,cigar.jpg,tree.jpg,tortoise01.jpg,mouse.jpg,kiwi03.jpg,fireplace.jpg,,,,,,,0,0,7,,,,,.\resources\ladybug03.jpg,,,0,,,,,,,,,1,,,,,,,,,233.04867989999767,None,None,233.04867989999767,None,,,,,,,228.21578479999152,230.96591610000178,228.21578479999152,230.96591610000178,230.6992639999953,None,0.1648155000002589,0.3147497000027215,0.4647584000049392,0.6147186000016518,0.7647983000060776,0.9146689000044717,1.0642612000083318,1.2142459000024246,,,,,,,231.19881879999593,None,231.19881879999593,None,232.43218709999928,None,232.43218709999928,None,right,0.3814782999979798,232.43218709999928,None,232.84881229999883,None,232.84881229999883,None,right,0.18087099998956546,232.84881229999883,None,,,001,2021_Mar_17_1147,AB_pic,2020.2.10,59.9777122817278,
AB,lag5,5,4,9,0.1,0.05,0.2,main,,,,,0,34,34,34,,,,,,,mummy.jpg,drumstick.jpg,uprightpiano01.jpg,skunk.jpg,rose.jpg,ladybug03.jpg,squid.jpg,mouse.jpg,fireplace.jpg,platypus.jpg,microphone01.jpg,toad.jpg,nosmokingsign.jpg,tree.jpg,showerhead01.jpg,parkingmeter.jpg,pingpongtable.jpg,,,,,,,1,1,11,,,,,.\resources\fireplace.jpg,,,1,,,,,,,,,0,,,,,,,,,239.94822599999898,None,None,239.94822599999898,None,,,,,,,233.06537929999467,235.8155276000034,233.06537929999467,235.8155276000034,235.54894379999314,None,0.1645974999992177,0.3146171999978833,0.4646627000038279,0.6146597000042675,0.7646030000032624,0.9146898000035435,1.064578999998048,1.2141123000037624,1.364139299999806,1.5141484000050696,1.6641017999936594,1.8140833000070415,,,236.048432399999,None,236.048432399999,None,237.88181489999988,None,237.88181489999988,None,left,0.8759223999950336,237.88181489999988,None,238.79828570000245,None,238.79828570000245,None,left,1.1273691000096733,238.79828570000245,None,,,001,2021_Mar_17_1147,AB_pic,2020.2.10,59.9777122817278,
AB,lag7,7,5,12,0.1,0.05,0.2,main,,,,,0,35,35,35,,,,,,,parkingmeter.jpg,jellybean.jpg,mummy.jpg,nosmokingsign.jpg,tree.jpg,cigar.jpg,toad.jpg,crosscountryski.jpg,tortoise01.jpg,drumstick.jpg,kneepad01c.jpg,microphone01.jpg,basketball01.jpg,ladybug03.jpg,pingpongtable.jpg,rose.jpg,platypus.jpg,,,,,,,0,0,14,,,,,.\resources\microphone01.jpg,,,0,,,,,,,,,1,,,,,,,,,245.79783829999215,None,None,245.79783829999215,None,,,,,,,239.96489439999277,242.71509810000134,239.96489439999277,242.71509810000134,242.44845739999437,None,0.16504449999774806,0.31498859998828266,0.4649856999894837,0.6150230999919586,0.7650329999887617,0.9149694999941858,1.0649550999951316,1.2145342000003438,1.3645294999878388,1.5145136999926763,1.6645757999940543,1.8145428999996511,1.9645064999931492,2.114490299994941,242.94801599999482,None,242.94801599999482,None,245.23132469999837,None,245.23132469999837,None,right,0.3343229000020074,245.23132469999837,None,245.58114710000518,None,245.58114710000518,None,right,0.20050069999706466,245.58114710000518,None,2.2645117999927606,,001,2021_Mar_17_1147,AB_pic,2020.2.10,59.9777122817278,
AB,lag5,5,5,10,0.1,0.05,0.2,main,,,,,0,36,36,36,,,,,,,basketball01.jpg,kneepad01c.jpg,drumstick.jpg,tree.jpg,fireplace.jpg,squid.jpg,nosmokingsign.jpg,mouse.jpg,cigar.jpg,rose.jpg,tortoise01.jpg,pingpongtable.jpg,swordfish.jpg,butterfly.jpg,uprightpiano01.jpg,jellybean.jpg,crosscountryski.jpg,,,,,,,0,0,12,,,,,.\resources\rose.jpg,,,0,,,,,,,,,1,,,,,,,,,251.3641843999998,None,None,251.3641843999998,None,,,,,,,245.8144895000005,248.56475520000095,245.8144895000005,248.56475520000095,248.29808939999202,None,0.1648068000067724,0.31433490000199527,0.4643173999938881,0.6143252000038046,0.7643090000055963,0.9143028999969829,1.06435309999506,1.2143283000041265,1.364319999993313,1.5143108000047505,1.6643030999985058,1.8143053999956464,1.9642413999972632,,248.7976559999952,None,248.7976559999952,None,250.78090040000097,None,250.78090040000097,None,right,0.3607812999980524,250.78090040000097,None,251.18080580000242,None,251.18080580000242,None,right,0.1528930000058608,251.18080580000242,None,,,001,2021_Mar_17_1147,AB_pic,2020.2.10,59.9777122817278,
AB,lag7,7,3,10,0.1,0.05,0.2,main,,,,,0,37,37,37,,,,,,,microphone01.jpg,rose.jpg,swordfish.jpg,ladybug03.jpg,jellybean.jpg,crosscountryski.jpg,basketball01.jpg,drumstick.jpg,mouse.jpg,tortoise01.jpg,toad.jpg,fireplace.jpg,tree.jpg,nosmokingsign.jpg,football.jpg,kiwi03.jpg,pingpongtable.jpg,,,,,,,0,0,12,,,,,.\resources\tortoise01.jpg,,,0,,,,,,,,,1,,,,,,,,,256.93045569999083,None,None,256.93045569999083,None,,,,,,,251.38082769999164,254.13107370000216,251.38082769999164,254.13107370000216,253.863963900003,None,0.164369699996314,0.31435380000039004,0.4639156000048388,0.6143008999933954,0.7643339000060223,0.9138944000005722,1.063904199996614,1.213880399998743,1.363901499993517,1.5138595000025816,1.6638380999938818,1.8137829000042984,1.9638441999995848,,254.36392960000376,None,254.36392960000376,None,256.3471733000042,None,256.3471733000042,None,right,0.3704878999997163,256.3471733000042,None,256.763755699998,None,256.763755699998,None,right,0.14586060000874568,256.763755699998,None,,,001,2021_Mar_17_1147,AB_pic,2020.2.10,59.9777122817278,
AB,lag4,4,3,7,0.1,0.05,0.2,main,,,,,0,38,38,38,,,,,,,granolabar01.jpg,toad.jpg,uprightpiano01.jpg,showerhead01.jpg,microphone01.jpg,drumstick.jpg,tortoise01.jpg,parkingmeter.jpg,squid.jpg,swordfish.jpg,tree.jpg,fireplace.jpg,pingpongtable.jpg,football.jpg,bathtub.jpg,basketball01.jpg,skunk.jpg,,,,,,,1,0,9,,,,,.\resources\tortoise01.jpg,,,1,,,,,,,,,1,,,,,,,,,262.4967718000029,None,None,262.4967718000029,None,,,,,,,256.9470774999936,259.6973408999911,256.9470774999936,259.6973408999911,259.43071839999175,None,0.16436049999902025,0.31389540000236593,0.4638754999905359,0.6138752999977442,0.7638545999943744,0.913889499992365,1.0638469999976223,1.2138516999984859,1.3638218999985838,1.5138184999959776,,,,,259.9302549999993,None,259.9302549999993,None,261.4634766999952,None,261.4634766999952,None,left,0.8301973000052385,261.4634766999952,None,262.3302108999924,None,262.3302108999924,None,right,0.14742769999429584,262.3302108999924,None,,,001,2021_Mar_17_1147,AB_pic,2020.2.10,59.9777122817278,
AB,lag3,3,5,8,0.1,0.05,0.2,main,,,,,0,39,39,39,,,,,,,drumstick.jpg,squid.jpg,rose.jpg,microphone01.jpg,showerhead01.jpg,butterfly.jpg,skunk.jpg,uprightpiano01.jpg,tortoise01.jpg,nosmokingsign.jpg,granolabar01.jpg,kneepad01c.jpg,parkingmeter.jpg,tree.jpg,platypus.jpg,football.jpg,triangle.jpg,,,,,,,0,0,10,,,,,.\resources\uprightpiano01.jpg,,,0,,,,,,,,,1,,,,,,,,,267.8130664999975,None,None,267.8130664999975,None,,,,,,,262.51342839999415,265.2632148999983,262.51342839999415,265.2632148999983,264.99656260000484,None,0.16454749999684282,0.31450769999355543,0.4645507999957772,0.6145588999934262,0.7645368999947095,0.9145973999984562,1.064479399996344,1.2144671999994898,1.364444699996966,1.5144654999894556,1.6644437999930233,,,,265.4965544000006,None,265.4965544000006,None,267.179781800005,None,267.179781800005,None,right,0.4258445000014035,267.179781800005,None,267.64640489999147,None,267.64640489999147,None,right,0.15126450000389013,267.64640489999147,None,,,001,2021_Mar_17_1147,AB_pic,2020.2.10,59.9777122817278,
AB,lag2,2,4,6,0.1,0.05,0.2,main,,,,,0,40,40,40,,,,,,,mouse.jpg,toad.jpg,tortoise01.jpg,parkingmeter.jpg,crosscountryski.jpg,kiwi03.jpg,skunk.jpg,bathtub.jpg,fireplace.jpg,kneepad01c.jpg,ladybug03.jpg,football.jpg,tree.jpg,platypus.jpg,butterfly.jpg,microphone01.jpg,triangle.jpg,,,,,,,0,0,8,,,,,.\resources\kiwi03.jpg,,,0,,,,,,,,,1,,,,,,,,,273.2793398999987,None,None,273.2793398999987,None,,,,,,,267.8297265000001,270.5799856999947,267.8297265000001,270.5799856999947,270.31334269999934,None,0.1650082999985898,0.3150051999982679,0.4646013000019593,0.6146077000012156,0.7645355999993626,0.9146064999949886,1.064503399989917,1.214491899998393,1.3644976999930805,,,,,,270.8128383000003,None,270.8128383000003,None,272.1961229000008,None,272.1961229000008,None,right,0.8335279000020819,272.1961229000008,None,273.06286239999463,None,273.06286239999463,None,right,0.19074379999074154,273.06286239999463,None,,,001,2021_Mar_17_1147,AB_pic,2020.2.10,59.9777122817278,
AB,lag1,1,4,5,0.1,0.05,0.2,main,,,,,0,41,41,41,,,,,,,drumstick.jpg,cigar.jpg,mouse.jpg,kiwi03.jpg,uprightpiano01.jpg,microphone01.jpg,crosscountryski.jpg,tree.jpg,basketball01.jpg,showerhead01.jpg,bathtub.jpg,squid.jpg,granolabar01.jpg,toad.jpg,football.jpg,parkingmeter.jpg,triangle.jpg,,,,,,,0,0,7,,,,,.\resources\uprightpiano01.jpg,,,0,,,,,,,,,1,,,,,,,,,278.3790092000039,None,None,278.3790092000039,None,,,,,,,273.29615449999983,276.0458581999992,273.29615449999983,276.0458581999992,275.7792131000024,None,0.16455850000784267,0.31456210000033025,0.4645693000056781,0.6145485000015469,0.7645313999964856,0.9145093999977689,1.0645058000081917,1.2144907000038074,,,,,,,276.2791712000035,None,276.2791712000035,None,277.5124338000023,None,277.5124338000023,None,right,0.6532550000119954,277.5124338000023,None,278.2125268999953,None,278.2125268999953,None,right,0.14509279999765567,278.2125268999953,None,,,001,2021_Mar_17_1147,AB_pic,2020.2.10,59.9777122817278,
AB,lag6,6,5,11,0.1,0.05,0.2,main,,,,,0,42,42,42,,,,,,,mouse.jpg,football.jpg,jellybean.jpg,platypus.jpg,cigar.jpg,parkingmeter.jpg,crosscountryski.jpg,butterfly.jpg,drumstick.jpg,bathtub.jpg,kneepad01c.jpg,mummy.jpg,toad.jpg,pingpongtable.jpg,kiwi03.jpg,granolabar01.jpg,nosmokingsign.jpg,,,,,,,0,1,13,,,,,.\resources\kneepad01c.jpg,,,0,,,,,,,,,0,,,,,,,,,284.72865680000393,None,None,284.72865680000393,None,,,,,,,278.3957004999975,281.14595550000377,278.3957004999975,281.14595550000377,280.87887369999953,None,0.16456999999354593,0.31408640000154264,0.46468750000349246,0.6145230999973137,0.7641006000048947,0.9141248999949312,1.0640929999935906,1.214039700003923,1.364071599993622,1.5140376000053948,1.6640374999988126,1.8140290000010282,1.9639835999987554,2.114003299997421,281.3788424999948,None,281.3788424999948,None,283.51200770000287,None,283.51200770000287,None,right,0.9736485999892466,283.51200770000287,None,284.5286152000044,None,284.5286152000044,None,left,0.17301950001274236,284.5286152000044,None,,,001,2021_Mar_17_1147,AB_pic,2020.2.10,59.9777122817278,
AB,lag5,5,5,10,0.1,0.05,0.2,main,,,,,0,43,43,43,,,,,,,ladybug03.jpg,nosmokingsign.jpg,rose.jpg,bathtub.jpg,mummy.jpg,squid.jpg,basketball01.jpg,toad.jpg,showerhead01.jpg,parkingmeter.jpg,tree.jpg,jellybean.jpg,swordfish.jpg,cigar.jpg,football.jpg,pingpongtable.jpg,microphone01.jpg,,,,,,,0,0,12,,,,,.\resources\parkingmeter.jpg,,,0,,,,,,,,,1,,,,,,,,,290.32800800000257,None,None,290.32800800000257,None,,,,,,,284.7452980999951,287.49554360000184,284.7452980999951,287.49554360000184,287.228878599999,None,0.1644979999982752,0.315035399995395,0.4644708999985596,0.6144526999996742,0.7644724999991013,0.9144310999981826,1.0644444999925327,1.214416100003291,1.3644253999955254,1.5144066999928327,1.6643911999999546,1.81438860000344,1.9641783999977633,,287.7284343999927,None,287.7284343999927,None,289.69473730000027,None,289.69473730000027,None,right,0.4229225999879418,289.69473730000027,None,290.14468319999287,None,290.14468319999287,None,right,0.1649213999917265,290.14468319999287,None,,,001,2021_Mar_17_1147,AB_pic,2020.2.10,59.9777122817278,
AB,lag7,7,5,12,0.1,0.05,0.2,main,,,,,0,44,44,44,,,,,,,squid.jpg,swordfish.jpg,uprightpiano01.jpg,showerhead01.jpg,mummy.jpg,triangle.jpg,mouse.jpg,tree.jpg,pingpongtable.jpg,cigar.jpg,ladybug03.jpg,drumstick.jpg,jellybean.jpg,rose.jpg,basketball01.jpg,microphone01.jpg,football.jpg,,,,,,,0,1,14,,,,,.\resources\drumstick.jpg,,,0,,,,,,,,,0,,,,,,,,,296.9275764999969,None,None,296.9275764999969,None,,,,,,,290.3280228999938,293.0780797000043,290.3280228999938,293.0780797000043,292.828093499993,None,0.16462930000852793,0.3147254000068642,0.4646610000054352,0.6146425000042655,0.764622300004703,0.9143424000067171,1.064379600007669,1.2143605000019306,1.3643463000043994,1.5143258000025526,1.664404499999364,1.8143350000027567,1.9643198999983724,2.1143469999951776,293.3280459999951,None,293.3280459999951,None,295.5944152000011,None,295.5944152000011,None,right,1.0672905999963405,295.5944152000011,None,296.67764510000416,None,296.67764510000416,None,left,0.23193609999725595,296.67764510000416,None,2.2643013000051724,,001,2021_Mar_17_1147,AB_pic,2020.2.10,59.9777122817278,
AB,lag3,3,4,7,0.1,0.05,0.2,main,,,,,0,45,45,45,,,,,,,microphone01.jpg,ladybug03.jpg,basketball01.jpg,skunk.jpg,crosscountryski.jpg,kneepad01c.jpg,mummy.jpg,rose.jpg,cigar.jpg,nosmokingsign.jpg,granolabar01.jpg,parkingmeter.jpg,tortoise01.jpg,jellybean.jpg,showerhead01.jpg,butterfly.jpg,pingpongtable.jpg,,,,,,,1,0,9,,,,,.\resources\mummy.jpg,,,1,,,,,,,,,1,,,,,,,,,302.61084770000014,None,None,302.61084770000014,None,,,,,,,296.92755169999145,299.677803700004,296.92755169999145,299.677803700004,299.4278251999931,None,0.1649050999985775,0.31502589999581687,0.4650684999942314,0.6150196999951731,0.7650484000041615,0.9149892999994336,1.0649769000010565,1.2147170999960508,1.3645523000013782,1.5145462999935262,,,,,299.927821099991,None,299.927821099991,None,301.444113000005,None,301.444113000005,None,left,0.9294880999950692,301.444113000005,None,302.3940670000011,None,302.3940670000011,None,left,0.19553329999325797,302.3940670000011,None,,,001,2021_Mar_17_1147,AB_pic,2020.2.10,59.9777122817278,
AB,lag2,2,5,7,0.1,0.05,0.2,main,,,,,0,46,46,46,,,,,,,platypus.jpg,fireplace.jpg,toad.jpg,skunk.jpg,bathtub.jpg,rose.jpg,tree.jpg,basketball01.jpg,cigar.jpg,kiwi03.jpg,nosmokingsign.jpg,squid.jpg,ladybug03.jpg,drumstick.jpg,mummy.jpg,football.jpg,crosscountryski.jpg,,,,,,,0,0,9,,,,,.\resources\tree.jpg,,,0,,,,,,,,,1,,,,,,,,,307.7937485999922,None,None,307.7937485999922,None,,,,,,,302.6274972999963,305.37765280000167,302.6274972999963,305.37765280000167,305.11058259999845,None,0.16460629999346565,0.31466579998959787,0.4646115999930771,0.6145454999932554,0.7645428999967407,0.9145528999943053,1.0645365999953356,1.2145039999886649,1.3644724999903701,1.5144912999967346,,,,,305.6106695000053,None,305.6106695000053,None,307.1438441999926,None,307.1438441999926,None,right,0.42979329999070615,307.1438441999926,None,307.6106170999992,None,307.6106170999992,None,right,0.1549754000006942,307.6106170999992,None,,,001,2021_Mar_17_1147,AB_pic,2020.2.10,59.9777122817278,
AB,lag6,6,5,11,0.1,0.05,0.2,main,,,,,0,47,47,47,,,,,,,drumstick.jpg,parkingmeter.jpg,nosmokingsign.jpg,rose.jpg,cigar.jpg,triangle.jpg,granolabar01.jpg,platypus.jpg,pingpongtable.jpg,microphone01.jpg,mouse.jpg,kneepad01c.jpg,toad.jpg,basketball01.jpg,bathtub.jpg,butterfly.jpg,tortoise01.jpg,,,,,,,1,1,13,,,,,.\resources\mouse.jpg,,,1,,,,,,,,,0,,,,,,,,,314.0933557000011,None,None,314.0933557000011,None,,,,,,,307.81042359999265,310.560667999991,307.81042359999265,310.560667999991,310.2940443999978,None,0.16457140000420623,0.31451470000320114,0.46413249999750406,0.6141022999945562,0.7640675000002375,0.9140840000036405,1.0640846000023885,1.214083999991999,1.3640666999999667,1.5141023000032874,1.664033199995174,1.8140081000019563,1.9640195999963908,2.114004000002751,310.79357339999115,None,310.79357339999115,None,312.9267822999973,None,312.9267822999973,None,left,0.9428907000110485,312.9267822999973,None,313.910089099998,None,313.910089099998,None,left,0.15958299998601433,313.910089099998,None,,,001,2021_Mar_17_1147,AB_pic,2020.2.10,59.9777122817278,
AB,lag1,1,4,5,0.1,0.05,0.2,main,,,,,0,48,48,48,,,,,,,kneepad01c.jpg,crosscountryski.jpg,swordfish.jpg,toad.jpg,showerhead01.jpg,ladybug03.jpg,drumstick.jpg,basketball01.jpg,tree.jpg,uprightpiano01.jpg,jellybean.jpg,kiwi03.jpg,rose.jpg,triangle.jpg,microphone01.jpg,platypus.jpg,granolabar01.jpg,,,,,,,0,0,7,,,,,.\resources\showerhead01.jpg,,,0,,,,,,,,,1,,,,,,,,,319.90963259999114,None,None,319.90963259999114,None,,,,,,,314.11005560000194,316.8602433000051,314.11005560000194,316.8602433000051,316.5936834000022,None,0.1644436000060523,0.3144064999942202,0.4644250999990618,0.6144309999945108,0.7644083000050159,0.9144646000058856,1.064392999993288,1.2143752999982098,,,,,,,317.09314519999316,None,317.09314519999316,None,318.32641120000335,None,318.32641120000335,None,right,1.3032502999994904,318.32641120000335,None,319.676324,None,319.676324,None,left,0.20934449999185745,319.676324,None,,,001,2021_Mar_17_1147,AB_pic,2020.2.10,59.9777122817278,
AB,lag4,4,3,7,0.1,0.05,0.2,main,,,,,0,49,49,49,,,,,,,butterfly.jpg,triangle.jpg,basketball01.jpg,platypus.jpg,microphone01.jpg,drumstick.jpg,mouse.jpg,nosmokingsign.jpg,kiwi03.jpg,showerhead01.jpg,kneepad01c.jpg,tree.jpg,bathtub.jpg,jellybean.jpg,toad.jpg,squid.jpg,crosscountryski.jpg,,,,,,,0,0,9,,,,,.\resources\mouse.jpg,,,0,,,,,,,,,1,,,,,,,,,325.22594969999625,None,None,325.22594969999625,None,,,,,,,319.92645240000274,322.67655849999574,319.92645240000274,322.67655849999574,322.409931999995,None,0.16459439999016467,0.31458479999855626,0.46457290000398643,0.6145665999938501,0.764559699993697,0.9145339999959106,1.064522400003625,1.2145152000011876,1.3644749999948544,1.5145523999963189,,,,,322.90943620000326,None,322.90943620000326,None,324.44283509999514,None,324.44283509999514,None,right,0.4268305000005057,324.44283509999514,None,324.90932520000206,None,324.90932520000206,None,right,0.28836259999661706,324.90932520000206,None,,,001,2021_Mar_17_1147,AB_pic,2020.2.10,59.9777122817278,
AB,lag3,3,4,7,0.1,0.05,0.2,main,,,,,0,50,50,50,,,,,,,mouse.jpg,squid.jpg,showerhead01.jpg,tortoise01.jpg,toad.jpg,mummy.jpg,cigar.jpg,fireplace.jpg,ladybug03.jpg,drumstick.jpg,jellybean.jpg,butterfly.jpg,parkingmeter.jpg,swordfish.jpg,basketball01.jpg,football.jpg,tree.jpg,,,,,,,0,0,9,,,,,.\resources\cigar.jpg,,,0,,,,,,,,,1,,,,,,,,,330.4922633000009,None,None,330.4922633000009,None,,,,,,,325.24261669999396,327.9924683999998,325.24261669999396,327.9924683999998,327.72584780000034,None,0.1648639000050025,0.3148813000007067,0.46481950000452343,0.6148558999993838,0.7648205000004964,0.9148103000043193,1.064770500001032,1.2148153000016464,1.3648092000075849,1.5148038000043016,,,,,328.22580839999137,None,328.22580839999137,None,329.7591995999974,None,329.7591995999974,None,right,0.5104298000078415,329.7591995999974,None,330.29222519999894,None,330.29222519999894,None,right,0.1773996999982046,330.29222519999894,None,,,001,2021_Mar_17_1147,AB_pic,2020.2.10,59.9777122817278,
AB,lag7,7,5,12,0.1,0.05,0.2,main,,,,,0,51,51,51,,,,,,,tortoise01.jpg,mouse.jpg,cigar.jpg,granolabar01.jpg,kneepad01c.jpg,showerhead01.jpg,butterfly.jpg,basketball01.jpg,nosmokingsign.jpg,platypus.jpg,ladybug03.jpg,triangle.jpg,fireplace.jpg,kiwi03.jpg,jellybean.jpg,drumstick.jpg,bathtub.jpg,,,,,,,1,0,14,,,,,.\resources\triangle.jpg,,,1,,,,,,,,,1,,,,,,,,,336.3585469000012,None,None,336.3585469000012,None,,,,,,,330.50909140000294,333.2592003000027,330.50909140000294,333.2592003000027,332.9921289000049,None,0.16436169999360573,0.31436720000056084,0.4643876999907661,0.6143616999906953,0.7638902000035159,0.9139085999922827,1.0639003999967827,1.2138940000004368,1.3638838000042597,1.513840400002664,1.6639192000002367,1.8139230999950087,1.9638161000038963,2.113859799996135,333.49210350000067,None,333.49210350000067,None,335.7752535000036,None,335.7752535000036,None,left,0.36636289999296423,335.7752535000036,None,336.17534810000507,None,336.17534810000507,None,right,0.16625850000127684,336.17534810000507,None,2.2638257999933558,,001,2021_Mar_17_1147,AB_pic,2020.2.10,59.9777122817278,
AB,lag1,1,5,6,0.1,0.05,0.2,main,,,,,0,52,52,52,,,,,,,skunk.jpg,platypus.jpg,nosmokingsign.jpg,jellybean.jpg,tortoise01.jpg,drumstick.jpg,basketball01.jpg,toad.jpg,tree.jpg,triangle.jpg,fireplace.jpg,uprightpiano01.jpg,kiwi03.jpg,bathtub.jpg,swordfish.jpg,rose.jpg,showerhead01.jpg,,,,,,,0,0,8,,,,,.\resources\drumstick.jpg,,,0,,,,,,,,,1,,,,,,,,,342.29145989999813,None,None,342.29145989999813,None,,,,,,,336.3753391999926,339.12545199999295,336.3753391999926,339.12545199999295,338.8587861999986,None,0.16504389999317937,0.3151899999938905,0.4650175999995554,0.6150001999922097,0.7650189999985741,0.9145839999982854,1.0645035999914398,1.2145181999949273,1.3644965999992564,,,,,,339.35835369999404,None,339.35835369999404,None,340.74157499999274,None,340.74157499999274,None,right,0.8080055999889737,340.74157499999274,None,341.5915513999935,None,341.5915513999935,None,left,0.6701853999984451,341.5915513999935,None,,,001,2021_Mar_17_1147,AB_pic,2020.2.10,59.9777122817278,
AB,lag4,4,4,8,0.1,0.05,0.2,main,,,,,0,53,53,53,,,,,,,microphone01.jpg,tree.jpg,rose.jpg,butterfly.jpg,uprightpiano01.jpg,toad.jpg,fireplace.jpg,squid.jpg,kiwi03.jpg,jellybean.jpg,kneepad01c.jpg,crosscountryski.jpg,basketball01.jpg,showerhead01.jpg,nosmokingsign.jpg,tortoise01.jpg,football.jpg,,,,,,,0,0,10,,,,,.\resources\squid.jpg,,,0,,,,,,,,,1,,,,,,,,,348.291109499993,None,None,348.291109499993,None,,,,,,,342.3081455999927,345.058348999999,342.3081455999927,345.058348999999,344.79174760000024,None,0.16419890000543091,0.3142476000066381,0.4641890000057174,0.614145900006406,0.7641849000065122,0.9137194000068121,1.063753700000234,1.2137638999993214,1.3637007000070298,1.5137237000017194,1.6636845000030007,,,,345.29131349999807,None,345.29131349999807,None,346.9744997999951,None,346.9744997999951,None,right,1.1111013000045205,346.9744997999951,None,348.1245632999926,None,348.1245632999926,None,right,0.1370842000033008,348.1245632999926,None,,,001,2021_Mar_17_1147,AB_pic,2020.2.10,59.9777122817278,
AB,lag6,6,5,11,0.1,0.05,0.2,main,,,,,0,54,54,54,,,,,,,crosscountryski.jpg,football.jpg,platypus.jpg,tortoise01.jpg,fireplace.jpg,rose.jpg,toad.jpg,granolabar01.jpg,tree.jpg,mouse.jpg,microphone01.jpg,mummy.jpg,jellybean.jpg,butterfly.jpg,bathtub.jpg,parkingmeter.jpg,basketball01.jpg,,,,,,,1,0,13,,,,,.\resources\microphone01.jpg,,,1,,,,,,,,,1,,,,,,,,,354.9239985999942,None,None,354.9239985999942,None,,,,,,,348.30775809999614,351.05808990000514,348.30775809999614,351.05808990000514,350.79146649999893,None,0.16497870000603143,0.31492720000096597,0.4649704000039492,0.6148991999943973,0.7649297000025399,0.9148848000040743,1.0648939999955473,1.2148783000011463,1.3648397000069963,1.514812699999311,1.6648092999967048,1.8148192999942694,1.9647668999969028,2.114842499999213,351.2909510000027,None,351.2909510000027,None,353.4242163000017,None,353.4242163000017,None,left,1.3174238000065088,353.4242163000017,None,354.77414589999535,None,354.77414589999535,None,right,0.11944890000449959,354.77414589999535,None,,,001,2021_Mar_17_1147,AB_pic,2020.2.10,59.9777122817278,
AB,lag2,2,4,6,0.1,0.05,0.2,main,,,,,0,55,55,55,,,,,,,butterfly.jpg,toad.jpg,triangle.jpg,squid.jpg,uprightpiano01.jpg,kneepad01c.jpg,mouse.jpg,tree.jpg,basketball01.jpg,rose.jpg,swordfish.jpg,pingpongtable.jpg,platypus.jpg,cigar.jpg,showerhead01.jpg,kiwi03.jpg,drumstick.jpg,,,,,,,0,0,8,,,,,.\resources\kneepad01c.jpg,,,0,,,,,,,,,1,,,,,,,,,359.92367189999493,None,None,359.92367189999493,None,,,,,,,354.9408107999916,357.6909241999965,354.9408107999916,357.6909241999965,357.42426509999495,None,0.16440229999716394,0.3137866000033682,0.46378989999357145,0.6137785000028089,0.7637629999953788,0.9137584999989485,1.0637587999954121,1.2137381999928039,1.3637239999952726,,,,,,357.92381710000336,None,357.92381710000336,None,359.3070439000003,None,359.3070439000003,None,right,0.4105314000044018,359.3070439000003,None,359.75702140000067,None,359.75702140000067,None,right,0.13657200000307057,359.75702140000067,None,,,001,2021_Mar_17_1147,AB_pic,2020.2.10,59.9777122817278,
AB,lag5,5,4,9,0.1,0.05,0.2,main,,,,,0,56,56,56,,,,,,,bathtub.jpg,crosscountryski.jpg,butterfly.jpg,tree.jpg,toad.jpg,showerhead01.jpg,drumstick.jpg,nosmokingsign.jpg,microphone01.jpg,fireplace.jpg,pingpongtable.jpg,uprightpiano01.jpg,cigar.jpg,swordfish.jpg,tortoise01.jpg,triangle.jpg,rose.jpg,,,,,,,0,0,11,,,,,.\resources\microphone01.jpg,,,0,,,,,,,,,1,,,,,,,,,365.33999040000197,None,None,365.33999040000197,None,,,,,,,359.940520499993,362.69058189999487,359.940520499993,362.69058189999487,362.42394340000465,None,0.16436290000274312,0.313828199999989,0.4637676999991527,0.613788000002387,0.7637740000063786,0.9137655999948038,1.0637636000028579,1.2137813000008464,1.3637266000005184,1.5137246000085725,1.6637126999994507,1.8137013000086881,,,362.9234778999962,None,362.9234778999962,None,364.75669349999225,None,364.75669349999225,None,right,0.3769287000031909,364.75669349999225,None,365.1734856999974,None,365.1734856999974,None,right,0.14413849999255035,365.1734856999974,None,,,001,2021_Mar_17_1147,AB_pic,2020.2.10,59.9777122817278,
AB,lag2,2,3,5,0.1,0.05,0.2,main,,,,,0,57,57,57,,,,,,,toad.jpg,granolabar01.jpg,showerhead01.jpg,drumstick.jpg,nosmokingsign.jpg,pingpongtable.jpg,skunk.jpg,rose.jpg,tree.jpg,microphone01.jpg,crosscountryski.jpg,butterfly.jpg,swordfish.jpg,basketball01.jpg,squid.jpg,uprightpiano01.jpg,triangle.jpg,,,,,,,0,0,7,,,,,.\resources\nosmokingsign.jpg,,,0,,,,,,,,,1,,,,,,,,,370.18966039999793,None,None,370.18966039999793,None,,,,,,,365.35665089999384,368.1064636999945,365.35665089999384,368.1064636999945,367.8398245999997,None,0.1648406000022078,0.3150311000063084,0.4648181999946246,0.6143446000060067,0.764357399995788,0.9143807000073139,1.0643166000081692,1.2143267000064952,,,,,,,368.3397801999963,None,368.3397801999963,None,369.5730366999924,None,369.5730366999924,None,right,0.4165820999915013,369.5730366999924,None,370.02300919999834,None,370.02300919999834,None,right,0.14258240000344813,370.02300919999834,None,,,001,2021_Mar_17_1147,AB_pic,2020.2.10,59.9777122817278,
,,,,,,,,,,,,,,,,,,,,,,,drumstick.jpg,tortoise01.jpg,toad.jpg,cigar.jpg,kiwi03.jpg,fireplace.jpg,pingpongtable.jpg,triangle.jpg,microphone01.jpg,mummy.jpg,jellybean.jpg,parkingmeter.jpg,bathtub.jpg,skunk.jpg,swordfish.jpg,butterfly.jpg,football.jpg,,,,,,,0,0,13,,,,,.\resources\jellybean.jpg,,,0,,,,,,,,,1,,,,,,,,,,,,,,,,,,,,370.2064681000047,372.9565722999978,370.2064681000047,372.9565722999978,372.68993090000004,None,0.16467300000658724,0.31466820000787266,0.46465680000255816,0.6146656000055373,0.7646509000041988,0.9146402000042144,1.0646140000026207,1.2146075000055134,1.364605599999777,1.5145722000015667,1.664580399999977,1.8145693999977084,1.9645746000023792,2.1145405999996,373.1894653000054,None,373.1894653000054,None,375.3226571999985,None,375.3226571999985,None,right,0.32299100000818726,375.3226571999985,None,375.68944249999186,None,375.68944249999186,None,right,0.14014699999825098,375.68944249999186,None,,,,,,,,
