trialType,cndTyp,lag,T1_loc,T2_loc,stimLen,isi,skipProb,phase,trials.thisRepN,trials.thisTrialN,trials.thisN,trials.thisIndex,trials2.thisRepN,trials2.thisTrialN,trials2.thisN,trials2.thisIndex,text_3.started,text_3.stopped,key_resp_4.keys,key_resp_4.rt,key_resp_4.started,key_resp_4.stopped,img0,img1,img2,img3,img4,img5,img6,img7,img8,img9,img10,img11,img12,img13,img14,img15,img16,option1.started,option1.stopped,option2.started,option2.stopped,text_2.started,text_2.stopped,skip1,skip2,lastPresent,displayPicture.started,displayPicture.stopped,polygon_2.started,polygon_2.stopped,opt1_t1,polygon_4.started,polygon_4.stopped,cor1,option1_t1.started,option1_t1.stopped,key_resp.keys,key_resp.rt,key_resp.started,key_resp.stopped,polygon_5.started,polygon_5.stopped,cor2,option1_t2.started,option1_t2.stopped,key_resp_2.keys,key_resp_2.rt,key_resp_2.started,key_resp_2.stopped,feedbackText.started,feedbackText.stopped,text.started,text.stopped,key_resp_3.keys,key_resp_3.started,key_resp_3.stopped,text_4.started,text_4.stopped,key_resp_7.keys,key_resp_7.rt,key_resp_7.started,key_resp_7.stopped,option1_2.started,option1_2.stopped,option2_2.started,option2_2.stopped,text_5.started,text_5.stopped,t0,t1,t2,t3,t4,t5,t6,t7,t8,t9,t10,t11,t12,t13,displayPicture_3.started,displayPicture_3.stopped,polygon_13.started,polygon_13.stopped,polygon_7.started,polygon_7.stopped,option1_t1_2.started,option1_t1_2.stopped,key_resp_6.keys,key_resp_6.rt,key_resp_6.started,key_resp_6.stopped,polygon_6.started,polygon_6.stopped,option1_t2_2.started,option1_t2_2.stopped,key_resp_5.keys,key_resp_5.rt,key_resp_5.started,key_resp_5.stopped,t14,participant,session,date,expName,psychopyVersion,frameRate,
,,,,,,,,,,,,,,,,,10.663655199998175,None,space,6.520559800002957,10.663655199998175,None,,,,,,,,,,,,,,,,,,,,,,,,,,,,,,,,,,,,,,,,,,,,,,,,,,,,,,,,,,,,,,,,,,,,,,,,,,,,,,,,,,,,,,,,,,,,,,,,,,,,,,,,,001,2021_Mar_17_1235,AB_pic,2020.2.10,60.00625265373058,
AB,lag6,6,5,11,0.2,0.05,0.5,,0,0,0,0,,,,,,,,,,,ceilingfan01.jpg,pigeon.jpg,tortoise01.jpg,lip.jpg,fishskeleton.jpg,crosscountryski.jpg,chefshat.jpg,leafrake.jpg,holdfast.jpg,toyanimal05.jpg,bow.jpg,chimney.jpg,dandelion.jpg,footballhelmet.jpg,cloud.jpg,tie02.jpg,pokerchips.jpg,17.243374500001664,19.993396299993037,17.243374500001664,19.993396299993037,19.743403300002683,None,1,0,13,20.226725899992744,None,20.226725899992744,None,.\resources\bow.jpg,23.743030799989356,None,1,23.743030799989356,None,left,1.481233800004702,23.743030799989356,None,25.259591099995305,None,0,25.259591099995305,None,left,0.5486643999902299,25.259591099995305,None,25.84287839999888,None,26.842903969991312,None,None,26.842903969991312,None,,,,,,,,,,,,,,,,,,,,,,,,,,,,,,,,,,,,,,,,,,,,,,,,,001,2021_Mar_17_1235,AB_pic,2020.2.10,60.00625265373058,
,,,,,,,,,,,,,,,,,,,,,,,,,,,,,,,,,,,,,,,,,,,,,,,,,,,,,,,,,,,,,,,,,,,,,,,,,,,,,,,26.842913400003454,None,space,0.85144020000007,26.842913400003454,None,,,,,,,,,,,,,,,,,,,,,,,,,,,,,,,,,,,,,,,,,,,001,2021_Mar_17_1235,AB_pic,2020.2.10,60.00625265373058,
AB,lag6,6,5,11,0.2,0.05,0.5,ramp,,,,,0,0,0,0,,,,,,,cloud.jpg,microwave.jpg,kangaroo.jpg,tie02.jpg,leafrake.jpg,jeans01.jpg,sword01.jpg,bow.jpg,pigeon.jpg,chefshat.jpg,recyclingbin.jpg,dandelion.jpg,ceilingfan01.jpg,footballhelmet.jpg,magneticcompass.jpg,church.jpg,table01.jpg,,,,,,,0,0,13,,,,,.\resources\recyclingbin.jpg,,,1,,,,,,,,,1,,,,,,,,,35.4590260699988,None,None,35.4590260699988,None,,,,,,,27.776169499993557,30.526466399998753,27.776169499993557,30.526466399998753,30.259723099996336,None,0.2657760000001872,0.5157747999910498,0.7652777999901446,1.0156971999967936,1.2652913999918383,1.5153738999943016,1.7652537999965716,2.015213799997582,2.2651608000014676,2.5152066000009654,2.7651829999958863,3.015191300000879,3.265089699998498,3.5151224000001093,30.75983899999119,None,30.75983899999119,None,34.27578559999529,None,34.27578559999529,None,right,0.9726531000051182,34.27578559999529,None,35.29243339999812,None,35.29243339999812,None,right,0.13978029999998398,35.29243339999812,None,,,001,2021_Mar_17_1235,AB_pic,2020.2.10,60.00625265373058,
AB,lag4,4,4,8,0.193334,0.05,0.48,ramp,,,,,0,1,1,1,,,,,,,tortoise01.jpg,mouse.jpg,dandelion.jpg,bluecheese.jpg,holdfast.jpg,chimney.jpg,lip.jpg,chefshat.jpg,church.jpg,cloud.jpg,toyanimal05.jpg,tie02.jpg,table01.jpg,kangaroo.jpg,cigar.jpg,footballhelmet.jpg,leafrake.jpg,,,,,,,1,0,10,,,,,.\resources\chefshat.jpg,,,1,,,,,,,,,1,,,,,,,,,41.99190696998994,None,None,41.99190696998994,None,,,,,,,35.47568859999592,38.22558579999895,35.47568859999592,38.22558579999895,37.958885300002294,None,0.24782370000320952,0.4978138000005856,0.7311019999906421,0.9811287999909837,1.2311406999942847,1.4644150999956764,1.7144263999944087,1.9476858999987599,2.1977102999953786,2.4477137999929255,2.680978399992455,,,,38.45889249999891,None,38.45889249999891,None,41.158705399997416,None,41.158705399997416,None,left,0.6335531999939121,41.158705399997416,None,41.82529589999467,None,41.82529589999467,None,right,0.15093139999953564,41.82529589999467,None,,,001,2021_Mar_17_1235,AB_pic,2020.2.10,60.00625265373058,
AB,lag7,7,4,11,0.186668,0.05,0.45999999999999996,ramp,,,,,0,2,2,2,,,,,,,pokerchips.jpg,tie02.jpg,ceilingfan01.jpg,windshieldwiper02.jpg,lip.jpg,kangaroo.jpg,cigar.jpg,crosscountryski.jpg,dandelion.jpg,chefshat.jpg,microwave.jpg,mouse.jpg,pigeon.jpg,bluecheese.jpg,fishskeleton.jpg,tortoise01.jpg,magneticcompass.jpg,,,,,,,1,0,13,,,,,.\resources\microwave.jpg,,,1,,,,,,,,,1,,,,,,,,,48.941480169996794,None,None,48.941480169996794,None,,,,,,,42.008621599990875,44.75841949999449,42.008621599990875,44.75841949999449,44.49173290000181,None,0.24715319999086205,0.48048429998743813,0.7142287999886321,0.9471248999907402,1.1971250999922631,1.430418699994334,1.6637439999904018,1.8970763999968767,2.1304051999904914,2.3803926999971736,2.613697199994931,2.847038399995654,3.0803191999875708,3.3136682999902405,44.99174509999284,None,44.99174509999284,None,48.32499719999032,None,48.32499719999032,None,left,0.45127279999724124,48.32499719999032,None,48.824779499991564,None,48.824779499991564,None,right,0.08758590000797994,48.824779499991564,None,,,001,2021_Mar_17_1235,AB_pic,2020.2.10,60.00625265373058,
AB,lag5,5,5,10,0.180002,0.05,0.43999999999999995,ramp,,,,,0,3,3,3,,,,,,,microwave.jpg,tie02.jpg,cigar.jpg,vulture.jpg,table01.jpg,lip.jpg,church.jpg,dandelion.jpg,chimney.jpg,pigeon.jpg,kangaroo.jpg,bow.jpg,crosscountryski.jpg,pokerchips.jpg,fishskeleton.jpg,leafrake.jpg,chefshat.jpg,,,,,,,1,0,12,,,,,.\resources\pigeon.jpg,,,1,,,,,,,,,1,,,,,,,,,55.69097067000257,None,None,55.69097067000257,None,,,,,,,48.95815720000246,51.708406699995976,48.95815720000246,51.708406699995976,51.44173700000101,None,0.23166700000001583,0.4649955999921076,0.6983514000021387,0.9316213999991305,1.1650504999997793,1.3816071000037482,1.6150344999914523,1.8482282000040868,2.0815480000019306,2.3148803999938536,2.531529899992165,2.7648472000000766,2.998116699993261,,51.94126929999038,None,51.94126929999038,None,54.95774669999082,None,54.95774669999082,None,left,0.5785348999925191,54.95774669999082,None,55.57438089999778,None,55.57438089999778,None,right,0.09781780000776052,55.57438089999778,None,,,001,2021_Mar_17_1235,AB_pic,2020.2.10,60.00625265373058,
AB,lag2,2,3,5,0.173336,0.05,0.41999999999999993,ramp,,,,,0,4,4,4,,,,,,,jeans01.jpg,toyanimal05.jpg,mouse.jpg,leafrake.jpg,tortoise01.jpg,pigeon.jpg,microwave.jpg,recyclingbin.jpg,ceilingfan01.jpg,lip.jpg,chefshat.jpg,bluecheese.jpg,pokerchips.jpg,cigar.jpg,footballhelmet.jpg,dandelion.jpg,chimney.jpg,,,,,,,1,0,7,,,,,.\resources\tortoise01.jpg,,,1,,,,,,,,,1,,,,,,,,,61.72396747000312,None,None,61.72396747000312,None,,,,,,,55.70767530000012,58.45794069999829,55.70767530000012,58.45794069999829,58.191284499989706,None,0.23081850000016857,0.44745539998984896,0.6807530999940354,0.8974190999870189,1.1307514999934938,1.3473818999918876,1.5640251000004355,1.7973521999956574,,,,,,,58.6908570999949,None,58.6908570999949,None,60.50738879998971,None,60.50738879998971,None,left,1.0208302000100957,60.50738879998971,None,61.57399550000264,None,61.57399550000264,None,right,0.12226589999045245,61.57399550000264,None,,,001,2021_Mar_17_1235,AB_pic,2020.2.10,60.00625265373058,
AB,lag3,3,5,8,0.16666999999999998,0.05,0.3999999999999999,ramp,,,,,0,5,5,5,,,,,,,church.jpg,bluecheese.jpg,jeans01.jpg,vulture.jpg,cigar.jpg,leafrake.jpg,chimney.jpg,pigeon.jpg,toyanimal05.jpg,bow.jpg,kangaroo.jpg,magneticcompass.jpg,chefshat.jpg,microwave.jpg,dandelion.jpg,ceilingfan01.jpg,crosscountryski.jpg,,,,,,,0,1,10,,,,,.\resources\pigeon.jpg,,,1,,,,,,,,,1,,,,,,,,,68.7735050699921,None,None,68.7735050699921,None,,,,,,,61.74063839999144,64.49087490000238,61.74063839999144,64.49087490000238,64.22419280000031,None,0.23031479999190196,0.446938199995202,0.6636030999943614,0.8802483999897959,1.096893399997498,1.3135542999953032,1.53024199999345,1.746905499996501,1.96354519999295,2.1801829999894835,2.396834499988472,,,,64.72375979999197,None,64.72375979999197,None,67.1402681999898,None,67.1402681999898,None,right,1.4359840999968583,67.1402681999898,None,68.62347249999584,None,68.62347249999584,None,left,0.12878970000019763,68.62347249999584,None,,,001,2021_Mar_17_1235,AB_pic,2020.2.10,60.00625265373058,
AB,lag1,1,4,5,0.16000399999999998,0.05,0.3799999999999999,ramp,,,,,0,6,6,6,,,,,,,microwave.jpg,sword01.jpg,magneticcompass.jpg,pigeon.jpg,tortoise01.jpg,fishskeleton.jpg,table01.jpg,jeans01.jpg,bow.jpg,recyclingbin.jpg,leafrake.jpg,bluecheese.jpg,vulture.jpg,lip.jpg,windshieldwiper02.jpg,ceilingfan01.jpg,tie02.jpg,,,,,,,1,0,7,,,,,.\resources\tortoise01.jpg,,,1,,,,,,,,,1,,,,,,,,,75.27310166999087,None,None,75.27310166999087,None,,,,,,,68.79015659999277,71.5404039999994,68.79015659999277,71.5404039999994,71.27378049999243,None,0.21446069999365136,0.4311068999959389,0.6311125999927754,0.8477501000015764,1.0643945999909192,1.264393099991139,1.48106540000299,1.6810132999962661,,,,,,,71.77329640000244,None,71.77329640000244,None,73.47335289999319,None,73.47335289999319,None,left,1.6468867000075988,73.47335289999319,None,75.15644009999232,None,75.15644009999232,None,right,0.09976589999860153,75.15644009999232,None,,,001,2021_Mar_17_1235,AB_pic,2020.2.10,60.00625265373058,
AB,lag6,6,5,11,0.15333799999999997,0.05,0.3599999999999999,ramp,,,,,0,7,7,7,,,,,,,sword01.jpg,cloud.jpg,footballhelmet.jpg,crosscountryski.jpg,magneticcompass.jpg,holdfast.jpg,pigeon.jpg,tie02.jpg,microwave.jpg,recyclingbin.jpg,bow.jpg,pokerchips.jpg,mouse.jpg,lip.jpg,ceilingfan01.jpg,chimney.jpg,jeans01.jpg,,,,,,,1,0,13,,,,,.\resources\bow.jpg,,,1,,,,,,,,,1,,,,,,,,,81.75595276999957,None,None,81.75595276999957,None,,,,,,,75.2897484999994,78.03995589999249,75.2897484999994,78.03995589999249,77.7729035999946,None,0.2143041999952402,0.4137988000002224,0.6137817999988329,0.813766699997359,1.030418299997109,1.2304113999998663,1.4304319000075338,1.6303746000048704,1.8303620000078809,2.047037600001204,2.2470261999987997,2.446996200000285,2.646993400005158,2.8472333999961847,78.27286879999156,None,78.27286879999156,None,81.13952070000232,None,81.13952070000232,None,left,0.46077360000344925,81.13952070000232,None,81.63932819999172,None,81.63932819999172,None,right,0.09706179999921005,81.63932819999172,None,,,001,2021_Mar_17_1235,AB_pic,2020.2.10,60.00625265373058,
AB,lag3,3,4,7,0.14667199999999997,0.05,0.33999999999999986,ramp,,,,,0,8,8,8,,,,,,,windshieldwiper02.jpg,chefshat.jpg,magneticcompass.jpg,microwave.jpg,vulture.jpg,church.jpg,cigar.jpg,lip.jpg,dandelion.jpg,jeans01.jpg,table01.jpg,tortoise01.jpg,chimney.jpg,footballhelmet.jpg,leafrake.jpg,recyclingbin.jpg,sword01.jpg,,,,,,,1,1,9,,,,,.\resources\cigar.jpg,,,1,,,,,,,,,1,,,,,,,,,88.08886717000132,None,None,88.08886717000132,None,,,,,,,81.77267169998959,84.52294179999444,81.77267169998959,84.52294179999444,84.25629409999237,None,0.1978720000042813,0.3978440000064438,0.597835100008524,0.7978036999993492,0.9978114000114147,1.1811427000066033,1.3811463000020012,1.581104900003993,1.7810852000111481,1.98106830001052,,,,,84.75576879999426,None,84.75576879999426,None,86.75567959999898,None,86.75567959999898,None,left,0.8445535999926506,86.75567959999898,None,87.63893739999912,None,87.63893739999912,None,left,0.4253166999988025,87.63893739999912,None,,,001,2021_Mar_17_1235,AB_pic,2020.2.10,60.00625265373058,
AB,lag4,4,4,8,0.14000599999999996,0.05,0.31999999999999984,ramp,,,,,0,9,9,9,,,,,,,footballhelmet.jpg,crosscountryski.jpg,sword01.jpg,fishskeleton.jpg,tortoise01.jpg,vulture.jpg,cigar.jpg,mouse.jpg,table01.jpg,lip.jpg,bow.jpg,jeans01.jpg,pigeon.jpg,holdfast.jpg,church.jpg,tie02.jpg,bluecheese.jpg,,,,,,,1,0,10,,,,,.\resources\mouse.jpg,,,1,,,,,,,,,1,,,,,,,,,93.90517486999306,None,None,93.90517486999306,None,,,,,,,88.10557689999405,90.8558073000022,88.10557689999405,90.8558073000022,90.58871619999991,None,0.19829510001000017,0.38096030001179315,0.5813739000004716,0.7642931000009412,0.9643104999995558,1.14762500001234,1.3309168000123464,1.5308828000124777,1.7142076000018278,1.9142026000045007,2.097539800000959,,,,91.08869269999559,None,91.08869269999559,None,93.20523839999805,None,93.20523839999805,None,left,0.5309832000057213,93.20523839999805,None,93.77185350000218,None,93.77185350000218,None,right,0.10838029999285936,93.77185350000218,None,,,001,2021_Mar_17_1235,AB_pic,2020.2.10,60.00625265373058,
AB,lag5,5,4,9,0.13333999999999996,0.05,0.2999999999999998,ramp,,,,,0,10,10,10,,,,,,,church.jpg,jeans01.jpg,leafrake.jpg,pokerchips.jpg,windshieldwiper02.jpg,vulture.jpg,footballhelmet.jpg,bluecheese.jpg,kangaroo.jpg,bow.jpg,toyanimal05.jpg,holdfast.jpg,cigar.jpg,lip.jpg,pigeon.jpg,tortoise01.jpg,chefshat.jpg,,,,,,,0,0,11,,,,,.\resources\kangaroo.jpg,,,1,,,,,,,,,1,,,,,,,,,99.65480496999953,None,None,99.65480496999953,None,,,,,,,93.92185159999644,96.67208499999833,93.92185159999644,96.67208499999833,96.4054010999971,None,0.19746180000947788,0.38073140000051353,0.5641195000061998,0.7474405000102706,0.9307267000112915,1.1140715000074124,1.2973659000126645,1.480680000007851,1.6640106000122614,1.847326700008125,2.030692500004079,2.21415960000013,,,96.9049498999957,None,96.9049498999957,None,99.13815869999235,None,99.13815869999235,None,right,0.29400449999957345,99.13815869999235,None,99.47149039999931,None,99.47149039999931,None,right,0.1526663999975426,99.47149039999931,None,,,001,2021_Mar_17_1235,AB_pic,2020.2.10,60.00625265373058,
AB,lag2,2,3,5,0.12667399999999995,0.05,0.2799999999999998,ramp,,,,,0,11,11,11,,,,,,,recyclingbin.jpg,pokerchips.jpg,magneticcompass.jpg,fishskeleton.jpg,cloud.jpg,microwave.jpg,tortoise01.jpg,leafrake.jpg,crosscountryski.jpg,sword01.jpg,windshieldwiper02.jpg,lip.jpg,holdfast.jpg,tie02.jpg,mouse.jpg,jeans01.jpg,bow.jpg,,,,,,,1,0,7,,,,,.\resources\cloud.jpg,,,1,,,,,,,,,0,,,,,,,,,105.35444277000352,None,None,105.35444277000352,None,,,,,,,99.67144249999546,102.4212378999946,99.67144249999546,102.4212378999946,102.15462370000023,None,0.18070929999521468,0.36402239999733865,0.5307095999887679,0.7139985999965575,0.8974184999970021,1.0639967000024626,1.2473354999965522,1.4139405000023544,,,,,,,102.67131379999046,None,102.67131379999046,None,104.08786220000184,None,104.08786220000184,None,left,0.9604209999961313,104.08786220000184,None,105.0879266999982,None,105.0879266999982,None,left,0.2483522999973502,105.0879266999982,None,,,001,2021_Mar_17_1235,AB_pic,2020.2.10,60.00625265373058,
AB,lag1,1,4,5,0.12000799999999995,0.05,0.2599999999999998,ramp,,,,,0,12,12,12,,,,,,,fishskeleton.jpg,toyanimal05.jpg,tie02.jpg,leafrake.jpg,mouse.jpg,bluecheese.jpg,lip.jpg,windshieldwiper02.jpg,pokerchips.jpg,chefshat.jpg,footballhelmet.jpg,table01.jpg,crosscountryski.jpg,holdfast.jpg,kangaroo.jpg,jeans01.jpg,cloud.jpg,,,,,,,1,1,7,,,,,.\resources\mouse.jpg,,,1,,,,,,,,,1,,,,,,,,,110.97075677000248,None,None,110.97075677000248,None,,,,,,,105.37110910000047,108.12134759999753,105.37110910000047,108.12134759999753,107.85468550000223,None,0.18029699999897275,0.34740440000314265,0.5136425000091549,0.6803304000059143,0.8635972000047332,1.0302611000079196,1.1968952000024728,1.3635530000028666,,,,,,,108.35423129999253,None,108.35423129999253,None,109.73750129999826,None,109.73750129999826,None,left,0.9827631000080146,109.73750129999826,None,110.75410479999846,None,110.75410479999846,None,left,0.19039090001024306,110.75410479999846,None,,,001,2021_Mar_17_1235,AB_pic,2020.2.10,60.00625265373058,
AB,lag7,7,5,12,0.11334199999999994,0.05,0.2399999999999998,ramp,,,,,0,13,13,13,,,,,,,chefshat.jpg,magneticcompass.jpg,pokerchips.jpg,toyanimal05.jpg,table01.jpg,dandelion.jpg,cloud.jpg,bluecheese.jpg,crosscountryski.jpg,jeans01.jpg,fishskeleton.jpg,vulture.jpg,cigar.jpg,windshieldwiper02.jpg,leafrake.jpg,bow.jpg,lip.jpg,,,,,,,1,1,14,,,,,.\resources\vulture.jpg,,,1,,,,,,,,,1,,,,,,,,,117.92025556999579,None,None,117.92025556999579,None,,,,,,,110.98739660000138,113.73720839999442,110.98739660000138,113.73720839999442,113.47054199999548,None,0.16451879999658559,0.33110899999155663,0.49775470000167843,0.6644382999947993,0.8310703999886755,0.9810865999897942,1.147781899999245,1.3144596999918576,1.481031699993764,1.6477081999910297,1.7976933000027202,1.9644071999937296,2.131011999998009,2.2976533999899402,113.97053929998947,None,113.97053929998947,None,116.45384309999645,None,116.45384309999645,None,left,0.9865349999890896,116.45384309999645,None,117.48696739999286,None,117.48696739999286,None,left,0.40134470000339206,117.48696739999286,None,2.4643767999950796,,001,2021_Mar_17_1235,AB_pic,2020.2.10,60.00625265373058,
AB,lag1,1,3,4,0.10667599999999994,0.05,0.2199999999999998,ramp,,,,,0,14,14,14,,,,,,,holdfast.jpg,bluecheese.jpg,sword01.jpg,tie02.jpg,leafrake.jpg,toyanimal05.jpg,footballhelmet.jpg,chimney.jpg,pigeon.jpg,dandelion.jpg,pokerchips.jpg,cloud.jpg,ceilingfan01.jpg,crosscountryski.jpg,cigar.jpg,fishskeleton.jpg,tortoise01.jpg,,,,,,,0,1,6,,,,,.\resources\tie02.jpg,,,1,,,,,,,,,1,,,,,,,,,123.45325766999304,None,None,123.45325766999304,None,,,,,,,117.93691560000298,120.68718549999176,117.93691560000298,120.68718549999176,120.42053489999671,None,0.16421790000458714,0.314273800002411,0.48081370000727475,0.6308314000052633,0.7974920999986352,0.9474812000116799,1.0974455000105081,,,,,,,,120.92016619999777,None,120.92016619999777,None,122.03679040000134,None,122.03679040000134,None,right,1.0994370999978855,122.03679040000134,None,123.16993170000205,None,123.16993170000205,None,left,0.2544019000051776,123.16993170000205,None,,,001,2021_Mar_17_1235,AB_pic,2020.2.10,60.00625265373058,
AB,lag6,6,5,11,0.1,0.05,0.2,main,,,,,0,15,15,15,,,,,,,leafrake.jpg,bow.jpg,cloud.jpg,fishskeleton.jpg,tortoise01.jpg,windshieldwiper02.jpg,holdfast.jpg,jeans01.jpg,church.jpg,dandelion.jpg,lip.jpg,ceilingfan01.jpg,mouse.jpg,pigeon.jpg,toyanimal05.jpg,microwave.jpg,table01.jpg,,,,,,,0,0,13,,,,,.\resources\lip.jpg,,,1,,,,,,,,,1,,,,,,,,,129.18622806999338,None,None,129.18622806999338,None,,,,,,,123.46990329999244,126.21969959999842,123.46990329999244,126.21969959999842,125.95306849999179,None,0.16470160000608303,0.3147240999969654,0.46464770000602584,0.6147045999969123,0.7646220000024186,0.9146191000036197,1.0646453999943333,1.2145990999997593,1.3645843999984208,1.5146074000076624,1.6646195000066655,1.8145908000005875,1.9645640999951866,2.114564400006202,126.45302119999542,None,126.45302119999542,None,128.5862369999959,None,128.5862369999959,None,right,0.4139844999881461,128.5862369999959,None,129.0363340999902,None,129.0363340999902,None,right,0.13201100000878796,129.0363340999902,None,,,001,2021_Mar_17_1235,AB_pic,2020.2.10,60.00625265373058,
AB,lag1,1,5,6,0.1,0.05,0.2,main,,,,,0,16,16,16,,,,,,,toyanimal05.jpg,lip.jpg,fishskeleton.jpg,microwave.jpg,jeans01.jpg,cigar.jpg,crosscountryski.jpg,tie02.jpg,vulture.jpg,chimney.jpg,bow.jpg,holdfast.jpg,pokerchips.jpg,footballhelmet.jpg,pigeon.jpg,sword01.jpg,church.jpg,,,,,,,0,1,8,,,,,.\resources\cigar.jpg,,,1,,,,,,,,,1,,,,,,,,,135.03582697000093,None,None,135.03582697000093,None,,,,,,,129.20285049999075,131.95268469999428,129.20285049999075,131.95268469999428,131.66939589999674,None,0.16478570000617765,0.31477860000450164,0.46486750000622123,0.614706100008334,0.7647609999985434,0.9147036000067601,1.0647472999989986,1.2146805000083987,1.364678099998855,,,,,,132.16934569999285,None,132.16934569999285,None,133.55260039999848,None,133.55260039999848,None,right,0.8558073000021977,133.55260039999848,None,134.45252769999206,None,134.45252769999206,None,left,0.5637442000006558,134.45252769999206,None,,,001,2021_Mar_17_1235,AB_pic,2020.2.10,60.00625265373058,
AB,lag5,5,3,8,0.1,0.05,0.2,main,,,,,0,17,17,17,,,,,,,pokerchips.jpg,sword01.jpg,lip.jpg,chimney.jpg,church.jpg,jeans01.jpg,cigar.jpg,toyanimal05.jpg,pigeon.jpg,leafrake.jpg,bluecheese.jpg,mouse.jpg,cloud.jpg,footballhelmet.jpg,crosscountryski.jpg,magneticcompass.jpg,tie02.jpg,,,,,,,0,1,10,,,,,.\resources\toyanimal05.jpg,,,1,,,,,,,,,1,,,,,,,,,141.5353946699979,None,None,141.5353946699979,None,,,,,,,135.0526591999951,137.80229269999836,135.0526591999951,137.80229269999836,137.53561969999282,None,0.1649481999920681,0.31501639999623876,0.4649458999920171,0.6149405000032857,0.7649090999912005,0.9149782000022242,1.0649091999948723,1.2149553999915952,1.3649335999944014,1.514939200002118,1.6649130000005243,,,,138.0356055000011,None,138.0356055000011,None,139.71881859999849,None,139.71881859999849,None,right,1.4733791000035126,139.71881859999849,None,141.2353865999903,None,141.2353865999903,None,left,0.26895249998779036,141.2353865999903,None,,,001,2021_Mar_17_1235,AB_pic,2020.2.10,60.00625265373058,
AB,lag3,3,4,7,0.1,0.05,0.2,main,,,,,0,18,18,18,,,,,,,ceilingfan01.jpg,dandelion.jpg,tie02.jpg,jeans01.jpg,windshieldwiper02.jpg,microwave.jpg,table01.jpg,leafrake.jpg,pigeon.jpg,footballhelmet.jpg,chefshat.jpg,lip.jpg,tortoise01.jpg,kangaroo.jpg,cloud.jpg,mouse.jpg,recyclingbin.jpg,,,,,,,0,0,9,,,,,.\resources\table01.jpg,,,1,,,,,,,,,1,,,,,,,,,147.5683164699949,None,None,147.5683164699949,None,,,,,,,141.55204490000324,144.30186120000144,141.55204490000324,144.30186120000144,144.03521360000013,None,0.16483890000381507,0.31481470000289846,0.46484860000782646,0.6148105000029318,0.7647268000000622,0.9147845999978017,1.0647711000056006,1.2146844000089914,1.3647635000088485,1.5146822999959113,,,,,144.53516859999218,None,144.53516859999218,None,146.0683973999985,None,146.0683973999985,None,right,1.044209999992745,146.0683973999985,None,147.15165849999175,None,147.15165849999175,None,right,0.400562999988324,147.15165849999175,None,,,001,2021_Mar_17_1235,AB_pic,2020.2.10,60.00625265373058,
AB,lag2,2,5,7,0.1,0.05,0.2,main,,,,,0,19,19,19,,,,,,,dandelion.jpg,vulture.jpg,table01.jpg,pigeon.jpg,crosscountryski.jpg,cigar.jpg,sword01.jpg,mouse.jpg,recyclingbin.jpg,chefshat.jpg,ceilingfan01.jpg,jeans01.jpg,bluecheese.jpg,tortoise01.jpg,holdfast.jpg,kangaroo.jpg,toyanimal05.jpg,,,,,,,0,0,9,,,,,.\resources\sword01.jpg,,,1,,,,,,,,,1,,,,,,,,,152.63465507000365,None,None,152.63465507000365,None,,,,,,,147.58496239999658,150.33478089999699,147.58496239999658,150.33478089999699,150.0681487999973,None,0.16485610000381712,0.31482890000916086,0.46485100001154933,0.6148293000005651,0.7647962000046391,0.9148064000037266,1.0648209000064526,1.2147900000127265,1.3647618000104558,1.5147542000049725,,,,,150.56813139999576,None,150.56813139999576,None,152.10138140000345,None,152.10138140000345,None,right,0.33896850000019185,152.10138140000345,None,152.48466869999538,None,152.48466869999538,None,right,0.1315690000046743,152.48466869999538,None,,,001,2021_Mar_17_1235,AB_pic,2020.2.10,60.00625265373058,
AB,lag4,4,3,7,0.1,0.05,0.2,main,,,,,0,20,20,20,,,,,,,magneticcompass.jpg,recyclingbin.jpg,chefshat.jpg,sword01.jpg,holdfast.jpg,cloud.jpg,fishskeleton.jpg,footballhelmet.jpg,bluecheese.jpg,vulture.jpg,pokerchips.jpg,ceilingfan01.jpg,lip.jpg,toyanimal05.jpg,mouse.jpg,cigar.jpg,tie02.jpg,,,,,,,0,1,9,,,,,.\resources\fishskeleton.jpg,,,1,,,,,,,,,1,,,,,,,,,158.41756806999183,None,None,158.41756806999183,None,,,,,,,152.6513019999984,155.40114619999076,152.6513019999984,155.40114619999076,155.11783279999509,None,0.16435970000748057,0.31441930000437424,0.4643643000017619,0.6142910000053234,0.7642986999999266,0.9142901000013808,1.064263899999787,1.2142809000069974,1.3642333000025246,1.5142612000054214,,,,,155.61780449999787,None,155.61780449999787,None,157.1511668000021,None,157.1511668000021,None,right,0.953519899994717,157.1511668000021,None,158.15092949999962,None,158.15092949999962,None,left,0.24927899999602232,158.15092949999962,None,,,001,2021_Mar_17_1235,AB_pic,2020.2.10,60.00625265373058,
AB,lag7,7,5,12,0.1,0.05,0.2,main,,,,,0,21,21,21,,,,,,,pigeon.jpg,chimney.jpg,ceilingfan01.jpg,sword01.jpg,pokerchips.jpg,magneticcompass.jpg,crosscountryski.jpg,cigar.jpg,vulture.jpg,leafrake.jpg,dandelion.jpg,bluecheese.jpg,church.jpg,footballhelmet.jpg,tie02.jpg,recyclingbin.jpg,tortoise01.jpg,,,,,,,0,0,14,,,,,.\resources\bluecheese.jpg,,,1,,,,,,,,,1,,,,,,,,,164.9005025699953,None,None,164.9005025699953,None,,,,,,,158.43425949999073,161.1841296999919,158.43425949999073,161.1841296999919,160.91745280000032,None,0.16490040000644512,0.3150335000100313,0.46488280000630766,0.6148695000010775,0.7648754000110785,0.9148144000064349,1.0648486000136472,1.2147725000104401,1.36488150000514,1.5148583000118379,1.664844600003562,1.814800300009665,1.9647874000074808,2.1147743000037735,161.41741670000192,None,161.41741670000192,None,163.70060529999319,None,163.70060529999319,None,right,0.9876230000081705,163.70060529999319,None,164.73385669999698,None,164.73385669999698,None,right,0.1462498000037158,164.73385669999698,None,2.2647773000062443,,001,2021_Mar_17_1235,AB_pic,2020.2.10,60.00625265373058,
AB,lag6,6,5,11,0.1,0.05,0.2,main,,,,,0,22,22,22,,,,,,,bluecheese.jpg,windshieldwiper02.jpg,crosscountryski.jpg,pigeon.jpg,cloud.jpg,recyclingbin.jpg,vulture.jpg,church.jpg,jeans01.jpg,tie02.jpg,chefshat.jpg,ceilingfan01.jpg,lip.jpg,chimney.jpg,tortoise01.jpg,cigar.jpg,pokerchips.jpg,,,,,,,0,0,13,,,,,.\resources\chefshat.jpg,,,1,,,,,,,,,1,,,,,,,,,170.60014847000275,None,None,170.60014847000275,None,,,,,,,164.91728369999328,167.66699450000306,164.91728369999328,167.66699450000306,167.40030349999142,None,0.16452720000233967,0.3149637000024086,0.4650967000052333,0.6149556000018492,0.7645111000019824,0.914487600006396,1.064482500005397,1.2144708999985596,1.3644690999935847,1.5144109999964712,1.6644621000014013,1.8144570000004023,1.9644167999940692,2.114399300000514,167.90030579999438,None,167.90030579999438,None,170.03351120000298,None,170.03351120000298,None,right,0.37462930000037886,170.03351120000298,None,170.45018839999102,None,170.45018839999102,None,right,0.13397349999286234,170.45018839999102,None,,,001,2021_Mar_17_1235,AB_pic,2020.2.10,60.00625265373058,
AB,lag7,7,5,12,0.1,0.05,0.2,main,,,,,0,23,23,23,,,,,,,church.jpg,fishskeleton.jpg,table01.jpg,chimney.jpg,crosscountryski.jpg,pigeon.jpg,toyanimal05.jpg,cloud.jpg,ceilingfan01.jpg,recyclingbin.jpg,magneticcompass.jpg,tie02.jpg,chefshat.jpg,tortoise01.jpg,jeans01.jpg,leafrake.jpg,footballhelmet.jpg,,,,,,,0,0,14,,,,,.\resources\tie02.jpg,,,1,,,,,,,,,1,,,,,,,,,176.41642467000202,None,None,176.41642467000202,None,,,,,,,170.61682379999547,173.36704679999093,170.61682379999547,173.36704679999093,173.10043549998954,None,0.16440690000308678,0.3138784999900963,0.46386099999654107,0.6138495999912266,0.7638289000024088,0.9138594999967609,1.0638457000022754,1.213814499991713,1.3638482999958796,1.513817899991409,1.663772699990659,1.8138201999972807,1.963827899991884,2.1137642999965465,173.5999262999976,None,173.5999262999976,None,175.88312289999158,None,175.88312289999158,None,right,0.3250459000119008,175.88312289999158,None,176.24975049999193,None,176.24975049999193,None,right,0.14242240000749007,176.24975049999193,None,2.2637728999980027,,001,2021_Mar_17_1235,AB_pic,2020.2.10,60.00625265373058,
AB,lag5,5,3,8,0.1,0.05,0.2,main,,,,,0,24,24,24,,,,,,,toyanimal05.jpg,microwave.jpg,holdfast.jpg,sword01.jpg,ceilingfan01.jpg,leafrake.jpg,cloud.jpg,kangaroo.jpg,table01.jpg,magneticcompass.jpg,pokerchips.jpg,vulture.jpg,dandelion.jpg,lip.jpg,pigeon.jpg,chefshat.jpg,bluecheese.jpg,,,,,,,0,0,10,,,,,.\resources\kangaroo.jpg,,,1,,,,,,,,,1,,,,,,,,,182.18269046999194,None,None,182.18269046999194,None,,,,,,,176.43307739999727,179.18337169999722,176.43307739999727,179.18337169999722,178.91673169999558,None,0.16370459999598097,0.3136750999983633,0.4636791999946581,0.6136739000066882,0.7636308999935864,0.9136672000022372,1.063700400001835,1.2136444000061601,1.3636720000067726,1.5136116000066977,1.6635829000006197,,,,179.4333609000023,None,179.4333609000023,None,181.099667699993,None,181.099667699993,None,right,0.8525044999987585,181.099667699993,None,181.99936489999527,None,181.99936489999527,None,right,0.15278150000085589,181.99936489999527,None,,,001,2021_Mar_17_1235,AB_pic,2020.2.10,60.00625265373058,
AB,lag3,3,3,6,0.1,0.05,0.2,main,,,,,0,25,25,25,,,,,,,dandelion.jpg,bluecheese.jpg,ceilingfan01.jpg,tortoise01.jpg,church.jpg,holdfast.jpg,bow.jpg,table01.jpg,pokerchips.jpg,vulture.jpg,crosscountryski.jpg,kangaroo.jpg,lip.jpg,leafrake.jpg,cloud.jpg,jeans01.jpg,recyclingbin.jpg,,,,,,,0,0,8,,,,,.\resources\holdfast.jpg,,,1,,,,,,,,,1,,,,,,,,,187.08237196999107,None,None,187.08237196999107,None,,,,,,,182.19948270000168,184.94960419999552,182.19948270000168,184.94960419999552,184.68255539999518,None,0.16480630000296514,0.3143733000033535,0.4643376000021817,0.614797100002761,0.7643420999957016,0.9143118000065442,1.0642926000000443,1.2143196999968495,1.3643124000082025,,,,,,185.18248350000067,None,185.18248350000067,None,186.56590689999575,None,186.56590689999575,None,right,0.29826239999965765,186.56590689999575,None,186.8992053999973,None,186.8992053999973,None,right,0.16494580000289716,186.8992053999973,None,,,001,2021_Mar_17_1235,AB_pic,2020.2.10,60.00625265373058,
AB,lag2,2,3,5,0.1,0.05,0.2,main,,,,,0,26,26,26,,,,,,,tie02.jpg,magneticcompass.jpg,bluecheese.jpg,chefshat.jpg,church.jpg,mouse.jpg,recyclingbin.jpg,kangaroo.jpg,cloud.jpg,tortoise01.jpg,bow.jpg,lip.jpg,cigar.jpg,footballhelmet.jpg,windshieldwiper02.jpg,toyanimal05.jpg,holdfast.jpg,,,,,,,0,1,7,,,,,.\resources\church.jpg,,,1,,,,,,,,,1,,,,,,,,,192.93195816998923,None,None,192.93195816998923,None,,,,,,,187.09907919999387,189.8488282999897,187.09907919999387,189.8488282999897,189.5822024999943,None,0.16456019999168348,0.3145924999989802,0.46455629999400117,0.6145485000015469,0.7645332999964012,0.9144850000011502,1.0645122999994783,1.2145429999945918,,,,,,,190.08216489999904,None,190.08216489999904,None,191.31541709999146,None,191.31541709999146,None,right,1.3967547999927774,191.31541709999146,None,192.74867780000204,None,192.74867780000204,None,left,0.1634635999944294,192.74867780000204,None,,,001,2021_Mar_17_1235,AB_pic,2020.2.10,60.00625265373058,
AB,lag1,1,5,6,0.1,0.05,0.2,main,,,,,0,27,27,27,,,,,,,sword01.jpg,chimney.jpg,cigar.jpg,jeans01.jpg,footballhelmet.jpg,vulture.jpg,windshieldwiper02.jpg,bow.jpg,holdfast.jpg,dandelion.jpg,lip.jpg,bluecheese.jpg,mouse.jpg,crosscountryski.jpg,pokerchips.jpg,recyclingbin.jpg,table01.jpg,,,,,,,1,0,8,,,,,.\resources\vulture.jpg,,,1,,,,,,,,,1,,,,,,,,,198.1983235699954,None,None,198.1983235699954,None,,,,,,,192.94861029999447,195.69849429999886,192.94861029999447,195.69849429999886,195.43185179999273,None,0.1648047999915434,0.31483409999054857,0.4647865000006277,0.6147637999965809,0.7647893999965163,0.9147794999880716,1.064760799999931,1.214784600000712,1.3647682999871904,,,,,,195.93177129999094,None,195.93177129999094,None,197.3150750999921,None,197.3150750999921,None,left,0.6850626999948872,197.3150750999921,None,198.03163709999353,None,198.03163709999353,None,right,0.1365170999924885,198.03163709999353,None,,,001,2021_Mar_17_1235,AB_pic,2020.2.10,60.00625265373058,
AB,lag4,4,5,9,0.1,0.05,0.2,main,,,,,0,28,28,28,,,,,,,pokerchips.jpg,tortoise01.jpg,bow.jpg,magneticcompass.jpg,kangaroo.jpg,cigar.jpg,ceilingfan01.jpg,sword01.jpg,dandelion.jpg,microwave.jpg,cloud.jpg,crosscountryski.jpg,chefshat.jpg,jeans01.jpg,recyclingbin.jpg,mouse.jpg,table01.jpg,,,,,,,0,0,11,,,,,.\resources\dandelion.jpg,,,1,,,,,,,,,1,,,,,,,,,203.69793946999562,None,None,203.69793946999562,None,,,,,,,198.2150352000026,200.96476099999563,198.2150352000026,200.96476099999563,200.69814969999425,None,0.164767899987055,0.3148124999861466,0.46486629999708384,0.6148060999985319,0.7647826999891549,0.9148101999890059,1.0647419999877457,1.214744699987932,1.3647844999941299,1.5146985999890603,1.6647314999863738,1.8147137999912957,,,201.19809789999272,None,201.19809789999272,None,203.0313146999979,None,203.0313146999979,None,right,0.4488124999916181,203.0313146999979,None,203.5147668999998,None,203.5147668999998,None,right,0.15735189999395516,203.5147668999998,None,,,001,2021_Mar_17_1235,AB_pic,2020.2.10,60.00625265373058,
AB,lag3,3,4,7,0.1,0.05,0.2,main,,,,,0,29,29,29,,,,,,,microwave.jpg,vulture.jpg,jeans01.jpg,leafrake.jpg,tie02.jpg,footballhelmet.jpg,sword01.jpg,ceilingfan01.jpg,bow.jpg,mouse.jpg,dandelion.jpg,magneticcompass.jpg,chimney.jpg,kangaroo.jpg,recyclingbin.jpg,bluecheese.jpg,table01.jpg,,,,,,,0,1,9,,,,,.\resources\sword01.jpg,,,1,,,,,,,,,1,,,,,,,,,209.6475731699975,None,None,209.6475731699975,None,,,,,,,203.71458279999206,206.46441909999703,203.71458279999206,206.46441909999703,206.1977756999986,None,0.16459539999777917,0.31459069999982603,0.4645920000039041,0.6145586000056937,0.7645438000035938,0.9145471000083489,1.0644916000019293,1.2145832999958657,1.3645212999981595,1.5145112000027439,,,,,206.69776049999928,None,206.69776049999928,None,208.2311708999914,None,208.2311708999914,None,right,1.200939999995171,208.2311708999914,None,209.46421109999937,None,209.46421109999937,None,left,0.1599046999908751,209.46421109999937,None,,,001,2021_Mar_17_1235,AB_pic,2020.2.10,60.00625265373058,
AB,lag1,1,4,5,0.1,0.05,0.2,main,,,,,0,30,30,30,,,,,,,bluecheese.jpg,magneticcompass.jpg,pigeon.jpg,jeans01.jpg,bow.jpg,mouse.jpg,tortoise01.jpg,toyanimal05.jpg,sword01.jpg,lip.jpg,footballhelmet.jpg,kangaroo.jpg,chimney.jpg,holdfast.jpg,cloud.jpg,pokerchips.jpg,ceilingfan01.jpg,,,,,,,0,0,7,,,,,.\resources\bow.jpg,,,1,,,,,,,,,1,,,,,,,,,214.43059907000134,None,None,214.43059907000134,None,,,,,,,209.66423100000247,212.41444769999362,209.66423100000247,212.41444769999362,212.14785009999468,None,0.1646333999960916,0.3145807999972021,0.4646364999935031,0.614566799995373,0.7645782999898074,0.9145390999910887,1.064571699986118,1.2145756999962032,,,,,,,212.64735149999615,None,212.64735149999615,None,213.88061999999627,None,213.88061999999627,None,right,0.35149319999618456,213.88061999999627,None,214.28058489999967,None,214.28058489999967,None,right,0.11951249999401625,214.28058489999967,None,,,001,2021_Mar_17_1235,AB_pic,2020.2.10,60.00625265373058,
AB,lag4,4,5,9,0.1,0.05,0.2,main,,,,,0,31,31,31,,,,,,,fishskeleton.jpg,pokerchips.jpg,magneticcompass.jpg,sword01.jpg,holdfast.jpg,footballhelmet.jpg,leafrake.jpg,windshieldwiper02.jpg,vulture.jpg,pigeon.jpg,recyclingbin.jpg,crosscountryski.jpg,table01.jpg,bow.jpg,toyanimal05.jpg,cloud.jpg,mouse.jpg,,,,,,,0,0,11,,,,,.\resources\vulture.jpg,,,1,,,,,,,,,1,,,,,,,,,219.74690787000145,None,None,219.74690787000145,None,,,,,,,214.44720579999557,217.19702849999885,214.44720579999557,217.19702849999885,216.93042720000085,None,0.16437909999513067,0.31436620000749826,0.46433440000691917,0.6143464000051608,0.7643286999955308,0.9143211000045994,1.0643091999954777,1.2143692999961786,1.3643056000000797,1.5143014000059338,1.6642701999953715,1.8142443999968236,,,217.43037069999264,None,217.43037069999264,None,219.2637376999919,None,219.2637376999919,None,right,0.29636110000137705,219.2637376999919,None,219.5970190999942,None,219.5970190999942,None,right,0.13108910000300966,219.5970190999942,None,,,001,2021_Mar_17_1235,AB_pic,2020.2.10,60.00625265373058,
AB,lag6,6,3,9,0.1,0.05,0.2,main,,,,,0,32,32,32,,,,,,,sword01.jpg,fishskeleton.jpg,ceilingfan01.jpg,pigeon.jpg,tie02.jpg,vulture.jpg,kangaroo.jpg,table01.jpg,toyanimal05.jpg,pokerchips.jpg,jeans01.jpg,crosscountryski.jpg,tortoise01.jpg,windshieldwiper02.jpg,bluecheese.jpg,lip.jpg,cloud.jpg,,,,,,,0,1,11,,,,,.\resources\toyanimal05.jpg,,,1,,,,,,,,,1,,,,,,,,,225.7631532699961,None,None,225.7631532699961,None,,,,,,,219.76354629998968,222.51379189999716,219.76354629998968,222.51379189999716,222.2471416999906,None,0.1642749000020558,0.3142365000094287,0.4642084000079194,0.6141955000057351,0.7641847000049893,0.9141955000086455,1.0641360000008717,1.2141752000025008,1.3643093000137014,1.5141619000060018,1.6641227000072831,1.8141176000062842,,,222.74675219999335,None,222.74675219999335,None,224.57985399999598,None,224.57985399999598,None,right,0.9882236999983434,224.57985399999598,None,225.61332449999463,None,225.61332449999463,None,left,0.1307706999941729,225.61332449999463,None,,,001,2021_Mar_17_1235,AB_pic,2020.2.10,60.00625265373058,
AB,lag2,2,3,5,0.1,0.05,0.2,main,,,,,0,33,33,33,,,,,,,pokerchips.jpg,church.jpg,footballhelmet.jpg,mouse.jpg,fishskeleton.jpg,sword01.jpg,chefshat.jpg,crosscountryski.jpg,table01.jpg,magneticcompass.jpg,recyclingbin.jpg,pigeon.jpg,microwave.jpg,toyanimal05.jpg,kangaroo.jpg,vulture.jpg,bow.jpg,,,,,,,0,1,7,,,,,.\resources\fishskeleton.jpg,,,1,,,,,,,,,1,,,,,,,,,231.12947646999237,None,None,231.12947646999237,None,,,,,,,225.77984079999442,228.52966689999448,225.77984079999442,228.52966689999448,228.26306399999885,None,0.1648362999985693,0.31484829999681097,0.46480529999826103,0.6148201000032714,0.7648144999984652,0.9148646999965422,1.0647959000052651,1.2147764999972424,,,,,,,228.76305909999064,None,228.76305909999064,None,229.99645099999907,None,229.99645099999907,None,right,0.9476565000077244,229.99645099999907,None,230.97960559999046,None,230.97960559999046,None,left,0.12450279999757186,230.97960559999046,None,,,001,2021_Mar_17_1235,AB_pic,2020.2.10,60.00625265373058,
AB,lag5,5,4,9,0.1,0.05,0.2,main,,,,,0,34,34,34,,,,,,,crosscountryski.jpg,cloud.jpg,kangaroo.jpg,chefshat.jpg,mouse.jpg,microwave.jpg,pigeon.jpg,tortoise01.jpg,cigar.jpg,windshieldwiper02.jpg,holdfast.jpg,fishskeleton.jpg,pokerchips.jpg,bow.jpg,chimney.jpg,bluecheese.jpg,recyclingbin.jpg,,,,,,,0,0,11,,,,,.\resources\cigar.jpg,,,1,,,,,,,,,1,,,,,,,,,236.4457634700011,None,None,236.4457634700011,None,,,,,,,231.14613789999567,233.89599009999074,231.14613789999567,233.89599009999074,233.6293139999907,None,0.16482959999120794,0.31482109999342356,0.4647897999966517,0.6147735999984434,0.7647865999897476,0.9147869000007631,1.064803999994183,1.2148091999988537,1.364742899997509,1.5147111999976914,1.6646738999988884,1.8147084999945946,,,234.1292861999973,None,234.1292861999973,None,235.96247149999544,None,235.96247149999544,None,right,0.29362440000113565,235.96247149999544,None,236.29579899999953,None,236.29579899999953,None,right,0.12827719999768306,236.29579899999953,None,,,001,2021_Mar_17_1235,AB_pic,2020.2.10,60.00625265373058,
,,,,,,,,,,,,,,,,,,,,,,,sword01.jpg,lip.jpg,bow.jpg,recyclingbin.jpg,toyanimal05.jpg,crosscountryski.jpg,pokerchips.jpg,bluecheese.jpg,chimney.jpg,fishskeleton.jpg,tie02.jpg,chefshat.jpg,footballhelmet.jpg,microwave.jpg,church.jpg,mouse.jpg,cloud.jpg,,,,,,,1,1,14,,,,,.\resources\toyanimal05.jpg,,,,,,,,,,,,,,,,,,,,,,,,,,,,,,,,236.46247299999231,239.21270789999107,236.46247299999231,239.21270789999107,238.9460747999983,None,0.16443780000554398,0.31432659999700263,0.46387430001050234,0.6139032000064617,0.7638453999970807,0.913829800003441,1.0638280999992276,1.2137771999987308,1.3637937000021338,1.5137854000058724,1.6637779000011506,1.813763400001335,1.9637784000078682,2.1138437000045087,239.44558929999766,None,239.44558929999766,None,,,,,,,,,,,,,,,,,2.263764200004516,,,,,,,
