trialType,cndTyp,lag,T1_loc,T2_loc,stimLen,isi,skipProb,phase,trials.thisRepN,trials.thisTrialN,trials.thisN,trials.thisIndex,trials2.thisRepN,trials2.thisTrialN,trials2.thisN,trials2.thisIndex,text_3.started,text_3.stopped,key_resp_4.keys,key_resp_4.rt,key_resp_4.started,key_resp_4.stopped,img0,img1,img2,img3,img4,img5,img6,img7,img8,img9,img10,img11,img12,img13,img14,img15,img16,option1.started,option1.stopped,option2.started,option2.stopped,text_2.started,text_2.stopped,skip1,skip2,lastPresent,displayPicture.started,displayPicture.stopped,polygon_2.started,polygon_2.stopped,opt1_t1,polygon_4.started,polygon_4.stopped,cor1,option1_t1.started,option1_t1.stopped,key_resp.keys,key_resp.rt,key_resp.started,key_resp.stopped,polygon_5.started,polygon_5.stopped,cor2,option1_t2.started,option1_t2.stopped,key_resp_2.keys,key_resp_2.rt,key_resp_2.started,key_resp_2.stopped,feedbackText.started,feedbackText.stopped,text.started,text.stopped,key_resp_3.keys,key_resp_3.started,key_resp_3.stopped,text_4.started,text_4.stopped,key_resp_7.keys,key_resp_7.rt,key_resp_7.started,key_resp_7.stopped,option1_2.started,option1_2.stopped,option2_2.started,option2_2.stopped,text_5.started,text_5.stopped,t0,t1,t2,t3,t4,t5,t6,t7,t8,t9,t10,t11,t12,t13,displayPicture_3.started,displayPicture_3.stopped,polygon_13.started,polygon_13.stopped,polygon_7.started,polygon_7.stopped,option1_t1_2.started,option1_t1_2.stopped,key_resp_6.keys,key_resp_6.rt,key_resp_6.started,key_resp_6.stopped,polygon_6.started,polygon_6.stopped,option1_t2_2.started,option1_t2_2.stopped,key_resp_5.keys,key_resp_5.rt,key_resp_5.started,key_resp_5.stopped,t14,participant,session,date,expName,psychopyVersion,frameRate,
,,,,,,,,,,,,,,,,,9.323166699992726,None,space,1.320775300002424,9.323166699992726,None,,,,,,,,,,,,,,,,,,,,,,,,,,,,,,,,,,,,,,,,,,,,,,,,,,,,,,,,,,,,,,,,,,,,,,,,,,,,,,,,,,,,,,,,,,,,,,,,,,,,,,,,,001,2021_Mar_17_1137,AB_pic,2020.2.10,59.996316226071606,
AB,lag6,6,5,11,0.2,0.05,0.5,,0,0,0,0,,,,,,,,,,,cobra.jpg,bathtub.jpg,whiteout.jpg,tulip02.jpg,porcupine.jpg,bumpercar.jpg,footballhelmet.jpg,waterfall.jpg,safe.jpg,parkingmeter.jpg,well.jpg,sausage.jpg,mummy.jpg,popcorn.jpg,ipad02.jpg,foldingchair.jpg,brownsugar.jpg,10.723855799995363,13.473238499995205,10.723855799995363,13.473238499995205,13.206628900006763,None,1,1,13,13.706729199999245,None,13.706729199999245,None,.\resources\well.jpg,17.20633590000216,None,1,17.20633590000216,None,left,0.5096508000133326,17.20633590000216,None,17.75648939999519,None,0,17.75648939999519,None,right,0.0874657000094885,17.75648939999519,None,17.88974589999998,None,18.889552490002824,None,None,18.889552490002824,None,,,,,,,,,,,,,,,,,,,,,,,,,,,,,,,,,,,,,,,,,,,,,,,,,001,2021_Mar_17_1137,AB_pic,2020.2.10,59.996316226071606,
,,,,,,,,,,,,,,,,,,,,,,,,,,,,,,,,,,,,,,,,,,,,,,,,,,,,,,,,,,,,,,,,,,,,,,,,,,,,,,,18.906224999998813,None,space,0.6958241000102134,18.906224999998813,None,,,,,,,,,,,,,,,,,,,,,,,,,,,,,,,,,,,,,,,,,,,001,2021_Mar_17_1137,AB_pic,2020.2.10,59.996316226071606,
AB,lag6,6,5,11,0.2,0.05,0.5,ramp,,,,,0,0,0,0,,,,,,,windmill.jpg,waterfall.jpg,bowlingpin.jpg,ipad02.jpg,sink.jpg,sausage.jpg,safe.jpg,acousticguitar02.jpg,football.jpg,popcorn.jpg,cow.jpg,funnel.jpg,mummy.jpg,porcupine.jpg,well.jpg,kite.jpg,steeringwheel.jpg,,,,,,,0,1,13,,,,,.\resources\cow.jpg,,,0,,,,,,,,,0,,,,,,,,,27.505583790002856,None,None,27.505583790002856,None,,,,,,,19.689527399998042,22.439300900005037,19.689527399998042,22.439300900005037,22.17266739999468,None,0.26567619999696035,0.515671699991799,0.7656545999925584,1.015667100000428,1.2656274999899324,1.5156772999907844,1.7656867999903625,2.0155651999957627,2.2655624999897555,2.515559499996016,2.765509999997448,3.0155429000005824,3.2654729999921983,3.5154836000001524,22.672777500003576,None,22.672777500003576,None,26.189071800006786,None,26.189071800006786,None,right,0.8868846999976085,26.189071800006786,None,27.122314799999003,None,27.122314799999003,None,left,0.3536365000036312,27.122314799999003,None,,,001,2021_Mar_17_1137,AB_pic,2020.2.10,59.996316226071606,
AB,lag4,4,4,8,0.193334,0.05,0.48,ramp,,,,,0,1,1,1,,,,,,,parkingmeter.jpg,windmill.jpg,well.jpg,ipad02.jpg,cobra.jpg,porcupine.jpg,popcorn.jpg,shower.jpg,foldingchair.jpg,mummy.jpg,tulip02.jpg,boat.jpg,sausage.jpg,funnel.jpg,steeringwheel.jpg,bathtub.jpg,fingerprint.jpg,,,,,,,1,0,10,,,,,.\resources\shower.jpg,,,1,,,,,,,,,1,,,,,,,,,34.721800689995874,None,None,34.721800689995874,None,,,,,,,27.52230339999369,30.272084399999585,27.52230339999369,30.272084399999585,30.00544419999642,None,0.24783690000185743,0.4978521000011824,0.731120500000543,0.9811587000003783,1.2311388999951305,1.4644690999994054,1.7144390000030398,1.9477627000014763,2.197727200007648,2.4477304000029108,2.6810390000027837,,,,30.505436399995233,None,30.505436399995233,None,33.205260799993994,None,33.205260799993994,None,left,1.1027647000009893,33.205260799993994,None,34.3551543999929,None,34.3551543999929,None,right,0.3367610999994213,34.3551543999929,None,,,001,2021_Mar_17_1137,AB_pic,2020.2.10,59.996316226071606,
AB,lag7,7,4,11,0.186668,0.05,0.45999999999999996,ramp,,,,,0,2,2,2,,,,,,,well.jpg,steeringwheel.jpg,bowlingpin.jpg,sink.jpg,pingpongtable.jpg,ipad02.jpg,shower.jpg,football.jpg,popcorn.jpg,mummy.jpg,parkingmeter.jpg,tulip02.jpg,cobra.jpg,bumpercar.jpg,acousticguitar02.jpg,kite.jpg,porcupine.jpg,,,,,,,1,1,13,,,,,.\resources\parkingmeter.jpg,,,1,,,,,,,,,0,,,,,,,,,42.27132288999856,None,None,42.27132288999856,None,,,,,,,34.73864460000186,37.488748599993414,34.73864460000186,37.488748599993414,37.222102200001245,None,0.24821910000173375,0.48088970000389963,0.7141641000052914,0.9475192999962019,1.1974944999965373,1.4308216000063112,1.6641225000057602,1.8974620000080904,2.130783100001281,2.3808152999990853,2.61412320000818,2.847407299996121,3.0806845000042813,3.3140099000011105,37.72164249999332,None,37.72164249999332,None,41.05474910000339,None,41.05474910000339,None,left,0.8452061999996658,41.05474910000339,None,41.93801860000531,None,41.93801860000531,None,left,0.3139194999967003,41.93801860000531,None,,,001,2021_Mar_17_1137,AB_pic,2020.2.10,59.996316226071606,
AB,lag5,5,5,10,0.180002,0.05,0.43999999999999995,ramp,,,,,0,3,3,3,,,,,,,tulip02.jpg,windmill.jpg,steeringwheel.jpg,fingerprint.jpg,ipad02.jpg,acousticguitar02.jpg,boat.jpg,football.jpg,bumpercar.jpg,bowlingpin.jpg,whiteout.jpg,parkingmeter.jpg,bathtub.jpg,popcorn.jpg,footballhelmet.jpg,porcupine.jpg,safe.jpg,,,,,,,0,0,12,,,,,.\resources\bowlingpin.jpg,,,0,,,,,,,,,1,,,,,,,,,49.18754179000389,None,None,49.18754179000389,None,,,,,,,42.288142399993376,45.037810199995874,42.288142399993376,45.037810199995874,44.771203800002695,None,0.2316308999870671,0.46495259999937844,0.6982214999879943,0.9310964999895077,1.1644295000005513,1.3811096999997972,1.6143865999911213,1.8477155000000494,2.080986599990865,2.3143095999985235,2.5310197999933735,2.7643012999906205,2.997634100000141,,45.271109099994646,None,45.271109099994646,None,48.28760979999788,None,48.28760979999788,None,right,0.5003890999942087,48.28760979999788,None,48.82092129999364,None,48.82092129999364,None,right,0.35103890000027604,48.82092129999364,None,,,001,2021_Mar_17_1137,AB_pic,2020.2.10,59.996316226071606,
AB,lag2,2,3,5,0.173336,0.05,0.41999999999999993,ramp,,,,,0,4,4,4,,,,,,,fingerprint.jpg,kite.jpg,bathtub.jpg,footballhelmet.jpg,shower.jpg,cow.jpg,whiteout.jpg,parkingmeter.jpg,tulip02.jpg,football.jpg,mummy.jpg,sausage.jpg,safe.jpg,waterfall.jpg,cobra.jpg,pingpongtable.jpg,brownsugar.jpg,,,,,,,0,0,7,,,,,.\resources\shower.jpg,,,0,,,,,,,,,1,,,,,,,,,55.43711118999927,None,None,55.43711118999927,None,,,,,,,49.2042070000025,51.954048900006455,49.2042070000025,51.954048900006455,51.68740080000134,None,0.23099280000315048,0.44755320000695065,0.6808693000057247,0.8975263000029372,1.1308696000050986,1.347524600001634,1.5641425000067102,1.7974782999954186,,,,,,,52.18736389999685,None,52.18736389999685,None,54.00389579999319,None,54.00389579999319,None,right,0.9360799999994924,54.00389579999319,None,54.98712049999449,None,54.98712049999449,None,right,0.4248049000016181,54.98712049999449,None,,,001,2021_Mar_17_1137,AB_pic,2020.2.10,59.996316226071606,
AB,lag3,3,5,8,0.16666999999999998,0.05,0.3999999999999999,ramp,,,,,0,5,5,5,,,,,,,boat.jpg,cow.jpg,footballhelmet.jpg,mummy.jpg,popcorn.jpg,windmill.jpg,football.jpg,well.jpg,steeringwheel.jpg,sausage.jpg,safe.jpg,bumpercar.jpg,cobra.jpg,bathtub.jpg,kite.jpg,shower.jpg,ipad02.jpg,,,,,,,0,1,10,,,,,.\resources\well.jpg,,,0,,,,,,,,,0,,,,,,,,,62.55329338999873,None,None,62.55329338999873,None,,,,,,,55.453925099995104,58.204005999999936,55.453925099995104,58.204005999999936,57.93695659999503,None,0.23103249999985565,0.44809109999914654,0.6643385000061244,0.8809879000036744,1.0976397000049474,1.3142904999986058,1.5309464000019943,1.7477170000056503,1.9643021000083536,2.1809329000097932,2.397551600006409,,,,58.436903699999675,None,58.436903699999675,None,60.85344960000657,None,60.85344960000657,None,right,0.5585275999910664,60.85344960000657,None,61.453441299992846,None,61.453441299992846,None,left,1.0705681000108598,61.453441299992846,None,,,001,2021_Mar_17_1137,AB_pic,2020.2.10,59.996316226071606,
AB,lag1,1,4,5,0.16000399999999998,0.05,0.3799999999999999,ramp,,,,,0,6,6,6,,,,,,,acousticguitar02.jpg,waterfall.jpg,pingpongtable.jpg,funnel.jpg,brownsugar.jpg,well.jpg,foldingchair.jpg,football.jpg,bumpercar.jpg,steeringwheel.jpg,popcorn.jpg,shower.jpg,boat.jpg,footballhelmet.jpg,sausage.jpg,safe.jpg,windmill.jpg,,,,,,,0,1,7,,,,,.\resources\brownsugar.jpg,,,0,,,,,,,,,0,,,,,,,,,68.73625349000504,None,None,68.73625349000504,None,,,,,,,62.569958599997335,65.32024089999322,62.569958599997335,65.32024089999322,65.05315330000303,None,0.21395389999088366,0.4310364999982994,0.630565999992541,0.8472975999902701,1.063903099988238,1.26392019999912,1.4805856999882963,1.6805004999914672,,,,,,,65.55310419999296,None,65.55310419999296,None,67.25304260000121,None,67.25304260000121,None,right,1.0388824999972712,67.25304260000121,None,68.33641699999862,None,68.33641699999862,None,left,0.37950480000290554,68.33641699999862,None,,,001,2021_Mar_17_1137,AB_pic,2020.2.10,59.996316226071606,
AB,lag6,6,5,11,0.15333799999999997,0.05,0.3599999999999999,ramp,,,,,0,7,7,7,,,,,,,mummy.jpg,cobra.jpg,sausage.jpg,footballhelmet.jpg,fingerprint.jpg,popcorn.jpg,windmill.jpg,acousticguitar02.jpg,foldingchair.jpg,football.jpg,shower.jpg,parkingmeter.jpg,kite.jpg,boat.jpg,tulip02.jpg,porcupine.jpg,bumpercar.jpg,,,,,,,0,1,13,,,,,.\resources\shower.jpg,,,0,,,,,,,,,0,,,,,,,,,76.36908339000657,None,None,76.36908339000657,None,,,,,,,68.75292670000636,71.50318559999869,68.75292670000636,71.50318559999869,71.2365293000039,None,0.21449389999906998,0.41446639999048784,0.6144777000008617,0.8144342000014149,1.03106399999524,1.2310293999908026,1.4310499999992317,1.6310124000010546,1.8309998999902746,2.0476554999913787,2.247630499987281,2.447654199990211,2.6476362999965204,2.8476248999941163,71.73605409999436,None,71.73605409999436,None,74.60252699999546,None,74.60252699999546,None,right,0.8093942000123207,74.60252699999546,None,75.4524739000044,None,75.4524739000044,None,left,0.8954477999941446,75.4524739000044,None,,,001,2021_Mar_17_1137,AB_pic,2020.2.10,59.996316226071606,
AB,lag3,3,4,7,0.14667199999999997,0.05,0.33999999999999986,ramp,,,,,0,8,8,8,,,,,,,fingerprint.jpg,well.jpg,porcupine.jpg,cow.jpg,bumpercar.jpg,kite.jpg,sausage.jpg,safe.jpg,whiteout.jpg,footballhelmet.jpg,shower.jpg,sink.jpg,popcorn.jpg,boat.jpg,bowlingpin.jpg,steeringwheel.jpg,ipad02.jpg,,,,,,,0,0,9,,,,,.\resources\sausage.jpg,,,0,,,,,,,,,1,,,,,,,,,82.3352827899973,None,None,82.3352827899973,None,,,,,,,76.38574990000052,79.13599920000706,76.38574990000052,79.13599920000706,78.86891130000004,None,0.1984026999998605,0.3981437000038568,0.5981915000011213,0.7976692000083858,0.9976574000029359,1.1809729000087827,1.3809739000134869,1.5809475000132807,1.7809401000122307,1.9809252000122797,,,,,79.36888860000181,None,79.36888860000181,None,81.36877950000053,None,81.36877950000053,None,right,0.5551112000102876,81.36877950000053,None,81.96870169999602,None,81.96870169999602,None,right,0.34716460001072846,81.96870169999602,None,,,001,2021_Mar_17_1137,AB_pic,2020.2.10,59.996316226071606,
AB,lag4,4,4,8,0.14000599999999996,0.05,0.31999999999999984,ramp,,,,,0,9,9,9,,,,,,,bumpercar.jpg,safe.jpg,acousticguitar02.jpg,brownsugar.jpg,steeringwheel.jpg,kite.jpg,popcorn.jpg,mummy.jpg,cobra.jpg,shower.jpg,sausage.jpg,bathtub.jpg,footballhelmet.jpg,porcupine.jpg,well.jpg,football.jpg,windmill.jpg,,,,,,,0,1,10,,,,,.\resources\mummy.jpg,,,0,,,,,,,,,0,,,,,,,,,88.7849035900028,None,None,88.7849035900028,None,,,,,,,82.35209810000379,85.10222659999272,82.35209810000379,85.10222659999272,84.83557660000224,None,0.19769430000451393,0.38083360000746325,0.5808157999999821,0.7641801999998279,0.9637481000099797,1.1470241000060923,1.3303977000032319,1.530410400009714,1.7137065999995684,1.9136930000095163,2.0969769000075758,,,,85.33511509999516,None,85.33511509999516,None,87.45162649999838,None,87.45162649999838,None,right,0.936298300002818,87.45162649999838,None,88.41826219999348,None,88.41826219999348,None,left,0.3456468000076711,88.41826219999348,None,,,001,2021_Mar_17_1137,AB_pic,2020.2.10,59.996316226071606,
AB,lag5,5,4,9,0.13333999999999996,0.05,0.2999999999999998,ramp,,,,,0,10,10,10,,,,,,,whiteout.jpg,shower.jpg,steeringwheel.jpg,windmill.jpg,popcorn.jpg,brownsugar.jpg,footballhelmet.jpg,tulip02.jpg,ipad02.jpg,cow.jpg,mummy.jpg,fingerprint.jpg,boat.jpg,sausage.jpg,pingpongtable.jpg,kite.jpg,well.jpg,,,,,,,1,1,11,,,,,.\resources\ipad02.jpg,,,1,,,,,,,,,0,,,,,,,,,97.20103348999983,None,None,97.20103348999983,None,,,,,,,88.80156469999929,91.5517908000038,88.80156469999929,91.5517908000038,91.28514639999776,None,0.19760660000611097,0.3805045000044629,0.5638593000039691,0.747159799997462,0.9304720000072848,1.113754500009236,1.2971202000044286,1.480485200008843,1.663785700002336,1.847123700004886,2.0304081000067526,2.213718600003631,,,91.78475059999619,None,91.78475059999619,None,94.01801850000629,None,94.01801850000629,None,left,1.617901499994332,94.01801850000629,None,95.66779680000036,None,95.66779680000036,None,left,1.5041075999906752,95.66779680000036,None,,,001,2021_Mar_17_1137,AB_pic,2020.2.10,59.996316226071606,
AB,lag2,2,3,5,0.12667399999999995,0.05,0.2799999999999998,ramp,,,,,0,11,11,11,,,,,,,sink.jpg,windmill.jpg,safe.jpg,pingpongtable.jpg,steeringwheel.jpg,bowlingpin.jpg,acousticguitar02.jpg,popcorn.jpg,footballhelmet.jpg,ipad02.jpg,cobra.jpg,whiteout.jpg,mummy.jpg,boat.jpg,foldingchair.jpg,porcupine.jpg,shower.jpg,,,,,,,0,0,7,,,,,.\resources\steeringwheel.jpg,,,0,,,,,,,,,1,,,,,,,,,102.76733139000426,None,None,102.76733139000426,None,,,,,,,97.21780399999989,99.967965799995,97.21780399999989,99.967965799995,99.70131040000706,None,0.18148240000300575,0.3648248999961652,0.5314652000088245,0.7148445000057109,0.8981504999974277,1.0648125000006985,1.24814840000181,1.41479480000271,,,,,,,100.20083640000666,None,100.20083640000666,None,101.63428290000593,None,101.63428290000593,None,right,0.689634099995601,101.63428290000593,None,102.36737320000248,None,102.36737320000248,None,left,0.3725075999973342,102.36737320000248,None,,,001,2021_Mar_17_1137,AB_pic,2020.2.10,59.996316226071606,
AB,lag1,1,4,5,0.12000799999999995,0.05,0.2599999999999998,ramp,,,,,0,12,12,12,,,,,,,boat.jpg,football.jpg,ipad02.jpg,parkingmeter.jpg,cow.jpg,whiteout.jpg,popcorn.jpg,fingerprint.jpg,kite.jpg,mummy.jpg,windmill.jpg,bowlingpin.jpg,sink.jpg,porcupine.jpg,tulip02.jpg,cobra.jpg,foldingchair.jpg,,,,,,,0,0,7,,,,,.\resources\cow.jpg,,,0,,,,,,,,,1,,,,,,,,,109.2002604899928,None,None,109.2002604899928,None,,,,,,,102.7840137000021,105.53425050000078,102.7840137000021,105.53425050000078,105.26759760000277,None,0.1816889000037918,0.34836730000097305,0.5145682000002125,0.6812175000086427,0.8645618000009563,1.0312031000066781,1.1978651999961585,1.36447909999697,,,,,,,105.76711289999366,None,105.76711289999366,None,107.15038049999566,None,107.15038049999566,None,left,1.7015261999913491,107.15038049999566,None,108.90045299999474,None,108.90045299999474,None,right,0.2714684000093257,108.90045299999474,None,,,001,2021_Mar_17_1137,AB_pic,2020.2.10,59.996316226071606,
AB,lag7,7,5,12,0.11334199999999994,0.05,0.2399999999999998,ramp,,,,,0,13,13,13,,,,,,,kite.jpg,shower.jpg,football.jpg,safe.jpg,bowlingpin.jpg,cobra.jpg,whiteout.jpg,funnel.jpg,bathtub.jpg,fingerprint.jpg,foldingchair.jpg,pingpongtable.jpg,boat.jpg,windmill.jpg,porcupine.jpg,ipad02.jpg,sausage.jpg,,,,,,,0,0,14,,,,,.\resources\pingpongtable.jpg,,,0,,,,,,,,,1,,,,,,,,,115.3998323900043,None,None,115.3998323900043,None,,,,,,,109.21707270000479,111.96669240000483,109.21707270000479,111.96669240000483,111.70012369999313,None,0.16415440000128,0.33080409999820404,0.4974854000029154,0.6641449000017019,0.8307938000070862,0.9808247000037227,1.1474946999951499,1.3140965000056894,1.4807337999955053,1.647354600005201,1.797363799996674,1.9640412000007927,2.13065550000465,2.2973200999986148,112.20005129999481,None,112.20005129999481,None,114.68337349999638,None,114.68337349999638,None,right,0.3285245000006398,114.68337349999638,None,115.04986719999579,None,115.04986719999579,None,right,0.32201659999554977,115.04986719999579,None,2.4639965999958804,,001,2021_Mar_17_1137,AB_pic,2020.2.10,59.996316226071606,
AB,lag1,1,3,4,0.10667599999999994,0.05,0.2199999999999998,ramp,,,,,0,14,14,14,,,,,,,porcupine.jpg,safe.jpg,footballhelmet.jpg,boat.jpg,sink.jpg,brownsugar.jpg,popcorn.jpg,bathtub.jpg,cow.jpg,well.jpg,steeringwheel.jpg,cobra.jpg,bowlingpin.jpg,sausage.jpg,tulip02.jpg,kite.jpg,bumpercar.jpg,,,,,,,0,0,6,,,,,.\resources\boat.jpg,,,0,,,,,,,,,1,,,,,,,,,120.68281648999546,None,None,120.68281648999546,None,,,,,,,115.41664559999481,118.16677739999432,115.41664559999481,118.16677739999432,117.89967739999702,None,0.16367090000130702,0.3141151000017999,0.48073500000464264,0.6307093000068562,0.7969241000100737,0.946907999998075,1.0968974999996135,,,,,,,,118.39966379999532,None,118.39966379999532,None,119.51638040000398,None,119.51638040000398,None,right,0.7516268999897875,119.51638040000398,None,120.31617419999384,None,120.31617419999384,None,left,0.3358443999895826,120.31617419999384,None,,,001,2021_Mar_17_1137,AB_pic,2020.2.10,59.996316226071606,
AB,lag6,6,5,11,0.1,0.05,0.2,main,,,,,0,15,15,15,,,,,,,windmill.jpg,tulip02.jpg,mummy.jpg,waterfall.jpg,foldingchair.jpg,porcupine.jpg,kite.jpg,whiteout.jpg,footballhelmet.jpg,well.jpg,sink.jpg,ipad02.jpg,brownsugar.jpg,bumpercar.jpg,cow.jpg,bowlingpin.jpg,acousticguitar02.jpg,,,,,,,0,1,13,,,,,.\resources\sink.jpg,,,0,,,,,,,,,0,,,,,,,,,127.03239619000233,None,None,127.03239619000233,None,,,,,,,120.69962679999298,123.4497282999946,120.69962679999298,123.4497282999946,123.18310209999618,None,0.16451630000665318,0.31456230000185315,0.46410550001019146,0.6140352000074927,0.764026400007424,0.9140325000043958,1.064013100010925,1.214003800007049,1.3639867000019876,1.513989400002174,1.6639594000007492,1.8139650000084657,1.963983499997994,2.114938099999563,123.68263989999832,None,123.68263989999832,None,125.81594349999796,None,125.81594349999796,None,left,0.8439690000086557,125.81594349999796,None,126.69909449999977,None,126.69909449999977,None,left,0.31279549999453593,126.69909449999977,None,,,001,2021_Mar_17_1137,AB_pic,2020.2.10,59.996316226071606,
AB,lag1,1,5,6,0.1,0.05,0.2,main,,,,,0,16,16,16,,,,,,,safe.jpg,footballhelmet.jpg,foldingchair.jpg,bumpercar.jpg,parkingmeter.jpg,sink.jpg,popcorn.jpg,boat.jpg,porcupine.jpg,acousticguitar02.jpg,waterfall.jpg,kite.jpg,mummy.jpg,pingpongtable.jpg,fingerprint.jpg,whiteout.jpg,well.jpg,,,,,,,0,0,8,,,,,.\resources\sink.jpg,,,0,,,,,,,,,1,,,,,,,,,132.69868768999294,None,None,132.69868768999294,None,,,,,,,127.04906799999299,129.7993179000041,127.04906799999299,129.7993179000041,129.53267980000237,None,0.16425270000763703,0.3142269999952987,0.46422330000496004,0.6143887000071118,0.7642021000065142,0.9141649000084726,1.0641800000012154,1.2142046000080882,1.3641523999976926,,,,,,130.0322057000012,None,130.0322057000012,None,131.41544959999737,None,131.41544959999737,None,left,1.0044981999963056,131.41544959999737,None,132.46537119999994,None,132.46537119999994,None,right,0.21052109998709057,132.46537119999994,None,,,001,2021_Mar_17_1137,AB_pic,2020.2.10,59.996316226071606,
AB,lag5,5,3,8,0.1,0.05,0.2,main,,,,,0,17,17,17,,,,,,,boat.jpg,ipad02.jpg,funnel.jpg,tulip02.jpg,footballhelmet.jpg,popcorn.jpg,mummy.jpg,brownsugar.jpg,fingerprint.jpg,bumpercar.jpg,porcupine.jpg,steeringwheel.jpg,sausage.jpg,football.jpg,cobra.jpg,well.jpg,bowlingpin.jpg,,,,,,,1,1,10,,,,,.\resources\brownsugar.jpg,,,1,,,,,,,,,0,,,,,,,,,138.56493548999714,None,None,138.56493548999714,None,,,,,,,132.71532540000044,135.46556909999344,132.71532540000044,135.46556909999344,135.19890479999594,None,0.1641027000005124,0.314124600001378,0.46368380000058096,0.6136851999908686,0.7636594999930821,0.9136043999897083,1.0636630999943009,1.2136020999896573,1.3636409000027925,1.5136352999979863,1.6636435999971582,,,,135.69848880000063,None,135.69848880000063,None,137.38172649999615,None,137.38172649999615,None,left,0.7903157999971882,137.38172649999615,None,138.21495540000615,None,138.21495540000615,None,left,0.3330308000004152,138.21495540000615,None,,,001,2021_Mar_17_1137,AB_pic,2020.2.10,59.996316226071606,
AB,lag3,3,4,7,0.1,0.05,0.2,main,,,,,0,18,18,18,,,,,,,ipad02.jpg,acousticguitar02.jpg,boat.jpg,waterfall.jpg,safe.jpg,tulip02.jpg,shower.jpg,funnel.jpg,bumpercar.jpg,windmill.jpg,steeringwheel.jpg,porcupine.jpg,mummy.jpg,football.jpg,sink.jpg,fingerprint.jpg,kite.jpg,,,,,,,1,0,9,,,,,.\resources\shower.jpg,,,1,,,,,,,,,1,,,,,,,,,145.28118348999413,None,None,145.28118348999413,None,,,,,,,138.58175630000187,141.33186049999495,138.58175630000187,141.33186049999495,141.0647850999958,None,0.1645546999934595,0.3145347999961814,0.46452799999678973,0.6145232999988366,0.7645265999890398,0.9145083999901544,1.0644974000024376,1.214486400000169,1.3644604000000982,1.5144718999945326,,,,,141.56475299999875,None,141.56475299999875,None,143.09797190000245,None,143.09797190000245,None,left,1.8739479000068968,143.09797190000245,None,144.99786869999662,None,144.99786869999662,None,right,0.25416839998797514,144.99786869999662,None,,,001,2021_Mar_17_1137,AB_pic,2020.2.10,59.996316226071606,
AB,lag2,2,5,7,0.1,0.05,0.2,main,,,,,0,19,19,19,,,,,,,footballhelmet.jpg,brownsugar.jpg,acousticguitar02.jpg,tulip02.jpg,kite.jpg,mummy.jpg,funnel.jpg,bumpercar.jpg,parkingmeter.jpg,safe.jpg,sausage.jpg,shower.jpg,sink.jpg,porcupine.jpg,cobra.jpg,bowlingpin.jpg,pingpongtable.jpg,,,,,,,0,1,9,,,,,.\resources\funnel.jpg,,,0,,,,,,,,,0,,,,,,,,,151.24747859000053,None,None,151.24747859000053,None,,,,,,,145.2978385000024,148.0481274000049,145.2978385000024,148.0481274000049,147.7814464999974,None,0.16439139998692553,0.31437219999497756,0.46437439999135677,0.6143475999997463,0.7643430999887642,0.9143572999892058,1.0643353999912506,1.2143171999923652,1.3643381000001682,1.514305399992736,,,,,148.2810249000031,None,148.2810249000031,None,149.8142230999947,None,149.8142230999947,None,right,1.0697482000105083,149.8142230999947,None,150.93083209999895,None,150.93083209999895,None,left,0.2892602999927476,150.93083209999895,None,,,001,2021_Mar_17_1137,AB_pic,2020.2.10,59.996316226071606,
AB,lag4,4,3,7,0.1,0.05,0.2,main,,,,,0,20,20,20,,,,,,,cobra.jpg,porcupine.jpg,popcorn.jpg,tulip02.jpg,bathtub.jpg,shower.jpg,pingpongtable.jpg,bowlingpin.jpg,mummy.jpg,waterfall.jpg,kite.jpg,boat.jpg,bumpercar.jpg,sausage.jpg,windmill.jpg,parkingmeter.jpg,footballhelmet.jpg,,,,,,,0,1,9,,,,,.\resources\pingpongtable.jpg,,,0,,,,,,,,,0,,,,,,,,,157.26371648999628,None,None,157.26371648999628,None,,,,,,,151.26414440000372,154.01393909999751,151.26414440000372,154.01393909999751,153.74731550000433,None,0.16483140000491403,0.31482720001076814,0.46479340000951197,0.6147847000102047,0.7648054000019329,0.9147844999970403,1.0647491999989143,1.214763000010862,1.364748400010285,1.5147374000080163,,,,,154.24727550000534,None,154.24727550000534,None,155.78049509999983,None,155.78049509999983,None,left,1.1114704000065103,155.78049509999983,None,156.930543399998,None,156.930543399998,None,left,0.3054192999989027,156.930543399998,None,,,001,2021_Mar_17_1137,AB_pic,2020.2.10,59.996316226071606,
AB,lag7,7,5,12,0.1,0.05,0.2,main,,,,,0,21,21,21,,,,,,,waterfall.jpg,cobra.jpg,footballhelmet.jpg,boat.jpg,cow.jpg,kite.jpg,porcupine.jpg,parkingmeter.jpg,brownsugar.jpg,football.jpg,shower.jpg,bathtub.jpg,sausage.jpg,foldingchair.jpg,acousticguitar02.jpg,bowlingpin.jpg,funnel.jpg,,,,,,,0,1,14,,,,,.\resources\bathtub.jpg,,,0,,,,,,,,,0,,,,,,,,,163.94660908999793,None,None,163.94660908999793,None,,,,,,,157.28039070000523,160.03063490000204,157.28039070000523,160.03063490000204,159.76395819999743,None,0.1644873000041116,0.3148412000009557,0.46487309999065474,0.6150164999999106,0.764804099992034,0.9144475999928545,1.0643736999918474,1.2144124999904307,1.364394699994591,1.5143860999960452,1.6643842999910703,1.8143743999971775,1.9643329999962589,2.1143563999939943,160.26353919999383,None,160.26353919999383,None,162.54686200000287,None,162.54686200000287,None,right,0.6491270999977132,162.54686200000287,None,163.23015149999992,None,163.23015149999992,None,left,0.6857938999892212,163.23015149999992,None,2.2643475999939255,,001,2021_Mar_17_1137,AB_pic,2020.2.10,59.996316226071606,
AB,lag6,6,5,11,0.1,0.05,0.2,main,,,,,0,22,22,22,,,,,,,bowlingpin.jpg,ipad02.jpg,acousticguitar02.jpg,well.jpg,tulip02.jpg,kite.jpg,steeringwheel.jpg,fingerprint.jpg,cow.jpg,sausage.jpg,sink.jpg,funnel.jpg,boat.jpg,footballhelmet.jpg,bathtub.jpg,foldingchair.jpg,brownsugar.jpg,,,,,,,0,0,13,,,,,.\resources\sink.jpg,,,0,,,,,,,,,1,,,,,,,,,169.96288008999835,None,None,169.96288008999835,None,,,,,,,163.9634209000069,166.7135197000025,163.9634209000069,166.7135197000025,166.44684950000374,None,0.1642981999902986,0.31387610000092536,0.4638312000024598,0.6138195999956224,0.7638453999970807,0.9138367999985348,1.0638206000003265,1.213851499996963,1.3637900999892736,1.5137994999968214,1.663753299988457,1.8138398000010056,1.9637420999933966,2.1137470999965444,166.94641960000445,None,166.94641960000445,None,169.07975309999892,None,169.07975309999892,None,right,0.6041754000034416,169.07975309999892,None,169.7297041999991,None,169.7297041999991,None,right,0.21825960000569467,169.7297041999991,None,,,001,2021_Mar_17_1137,AB_pic,2020.2.10,59.996316226071606,
AB,lag7,7,5,12,0.1,0.05,0.2,main,,,,,0,23,23,23,,,,,,,boat.jpg,fingerprint.jpg,football.jpg,kite.jpg,foldingchair.jpg,parkingmeter.jpg,pingpongtable.jpg,windmill.jpg,well.jpg,ipad02.jpg,funnel.jpg,whiteout.jpg,cobra.jpg,footballhelmet.jpg,steeringwheel.jpg,bowlingpin.jpg,mummy.jpg,,,,,,,0,1,14,,,,,.\resources\whiteout.jpg,,,0,,,,,,,,,0,,,,,,,,,176.59576549000047,None,None,176.59576549000047,None,,,,,,,169.97951889999968,172.72979599999962,169.97951889999968,172.72979599999962,172.4631292999984,None,0.16448510000191163,0.31443559999752324,0.464480900001945,0.6143855999980588,0.7643943000002764,0.9144361999933608,1.0643784999992931,1.2139392999961274,1.3639691999997012,1.5140161000017542,1.6639656999905128,1.813950299998396,1.9639145999972243,2.113897099989117,172.96266239999386,None,172.96266239999386,None,175.24599530000705,None,175.24599530000705,None,right,0.8858502999937627,175.24599530000705,None,176.1792734000046,None,176.1792734000046,None,right,0.4007145999930799,176.1792734000046,None,2.263901899990742,,001,2021_Mar_17_1137,AB_pic,2020.2.10,59.996316226071606,
AB,lag5,5,3,8,0.1,0.05,0.2,main,,,,,0,24,24,24,,,,,,,cow.jpg,foldingchair.jpg,shower.jpg,bathtub.jpg,well.jpg,whiteout.jpg,bumpercar.jpg,bowlingpin.jpg,sink.jpg,kite.jpg,safe.jpg,waterfall.jpg,ipad02.jpg,footballhelmet.jpg,popcorn.jpg,pingpongtable.jpg,parkingmeter.jpg,,,,,,,1,0,10,,,,,.\resources\bowlingpin.jpg,,,1,,,,,,,,,1,,,,,,,,,183.59531578999594,None,None,183.59531578999594,None,,,,,,,176.61242879999918,179.36267339999904,176.61242879999918,179.36267339999904,179.078923699999,None,0.1648568999953568,0.31480290000035893,0.46489450000808574,0.6143873999972129,0.7643487000023015,0.9143419000029098,1.064441700000316,1.2143168000038713,1.3643691000033868,1.5143041999981506,1.6643474000011338,,,,179.57889540000178,None,179.57889540000178,None,181.2622701999935,None,181.2622701999935,None,right,1.7816832000098657,181.2622701999935,None,183.06202699999267,None,183.06202699999267,None,right,0.5020611999934772,183.06202699999267,None,,,001,2021_Mar_17_1137,AB_pic,2020.2.10,59.996316226071606,
AB,lag3,3,3,6,0.1,0.05,0.2,main,,,,,0,25,25,25,,,,,,,pingpongtable.jpg,boat.jpg,brownsugar.jpg,sausage.jpg,safe.jpg,parkingmeter.jpg,football.jpg,whiteout.jpg,mummy.jpg,bumpercar.jpg,well.jpg,acousticguitar02.jpg,cow.jpg,bathtub.jpg,kite.jpg,tulip02.jpg,fingerprint.jpg,,,,,,,1,0,8,,,,,.\resources\parkingmeter.jpg,,,1,,,,,,,,,1,,,,,,,,,190.41153969000442,None,None,190.41153969000442,None,,,,,,,183.6121298999933,186.36220469999535,183.6121298999933,186.36220469999535,186.09513109999534,None,0.16426450001017656,0.3142504999996163,0.46423939999658614,0.6138194000086514,0.7638073999987682,0.9137965999980224,1.0637869000056526,1.2137979999970412,1.3637808000057703,,,,,,186.59511019999627,None,186.59511019999627,None,187.97840690000157,None,187.97840690000157,None,left,2.0975948000123026,187.97840690000157,None,190.11170900000434,None,190.11170900000434,None,right,0.2681444000045303,190.11170900000434,None,,,001,2021_Mar_17_1137,AB_pic,2020.2.10,59.996316226071606,
AB,lag2,2,3,5,0.1,0.05,0.2,main,,,,,0,26,26,26,,,,,,,bumpercar.jpg,bathtub.jpg,brownsugar.jpg,whiteout.jpg,cobra.jpg,shower.jpg,steeringwheel.jpg,ipad02.jpg,windmill.jpg,acousticguitar02.jpg,porcupine.jpg,sausage.jpg,tulip02.jpg,parkingmeter.jpg,sink.jpg,waterfall.jpg,boat.jpg,,,,,,,0,0,7,,,,,.\resources\cobra.jpg,,,0,,,,,,,,,1,,,,,,,,,195.34456318999872,None,None,195.34456318999872,None,,,,,,,190.42821650000405,193.17850680000265,190.42821650000405,193.17850680000265,192.91140070000256,None,0.16372219999902882,0.31414309999672696,0.46411929999885615,0.613675400003558,0.7636649999913061,0.9136506999930134,1.063627900002757,1.2136257999954978,,,,,,,193.41139660000044,None,193.41139660000044,None,194.64478839999356,None,194.64478839999356,None,right,0.4230630999954883,194.64478839999356,None,195.11140340000566,None,195.11140340000566,None,right,0.20446909999009222,195.11140340000566,None,,,001,2021_Mar_17_1137,AB_pic,2020.2.10,59.996316226071606,
AB,lag1,1,5,6,0.1,0.05,0.2,main,,,,,0,27,27,27,,,,,,,sausage.jpg,bowlingpin.jpg,safe.jpg,acousticguitar02.jpg,shower.jpg,parkingmeter.jpg,pingpongtable.jpg,waterfall.jpg,brownsugar.jpg,football.jpg,porcupine.jpg,boat.jpg,mummy.jpg,steeringwheel.jpg,sink.jpg,foldingchair.jpg,cobra.jpg,,,,,,,0,0,8,,,,,.\resources\parkingmeter.jpg,,,0,,,,,,,,,1,,,,,,,,,201.84394158999493,None,None,201.84394158999493,None,,,,,,,195.36137969999982,198.1108486000012,195.36137969999982,198.1108486000012,197.8442042999959,None,0.1646925000095507,0.31472260000009555,0.464699300006032,0.6146971999987727,0.764678500010632,0.9144552000070689,1.0644801000016741,1.2144817000080366,1.3643314000073588,,,,,,198.34438949999458,None,198.34438949999458,None,199.71067040000344,None,199.71067040000344,None,right,1.469134999992093,199.71067040000344,None,201.21064799999294,None,201.21064799999294,None,left,0.6092046999983722,201.21064799999294,None,,,001,2021_Mar_17_1137,AB_pic,2020.2.10,59.996316226071606,
AB,lag4,4,5,9,0.1,0.05,0.2,main,,,,,0,28,28,28,,,,,,,steeringwheel.jpg,safe.jpg,cobra.jpg,whiteout.jpg,sink.jpg,parkingmeter.jpg,tulip02.jpg,footballhelmet.jpg,pingpongtable.jpg,bowlingpin.jpg,mummy.jpg,bumpercar.jpg,popcorn.jpg,ipad02.jpg,sausage.jpg,fingerprint.jpg,kite.jpg,,,,,,,1,0,11,,,,,.\resources\pingpongtable.jpg,,,1,,,,,,,,,1,,,,,,,,,207.7770529900037,None,None,207.7770529900037,None,,,,,,,201.84392749999824,204.59417640000174,201.84392749999824,204.59417640000174,204.3442076999927,None,0.16431540000485256,0.3139002999960212,0.4638468000048306,0.6138728000078117,0.7638823000015691,0.9138969000050565,1.0638782000023639,1.213908599995193,1.3637979000050109,1.5137887000018964,1.6637535000045318,1.8137994999997318,,,204.84390089999943,None,204.84390089999943,None,206.67713680000452,None,206.67713680000452,None,left,0.7906825999962166,206.67713680000452,None,207.51038269999844,None,207.51038269999844,None,left,0.23743519998970442,207.51038269999844,None,,,001,2021_Mar_17_1137,AB_pic,2020.2.10,59.996316226071606,
AB,lag3,3,4,7,0.1,0.05,0.2,main,,,,,0,29,29,29,,,,,,,acousticguitar02.jpg,popcorn.jpg,pingpongtable.jpg,sink.jpg,football.jpg,kite.jpg,parkingmeter.jpg,whiteout.jpg,footballhelmet.jpg,cobra.jpg,ipad02.jpg,steeringwheel.jpg,mummy.jpg,windmill.jpg,bowlingpin.jpg,shower.jpg,boat.jpg,,,,,,,0,0,9,,,,,.\resources\parkingmeter.jpg,,,0,,,,,,,,,1,,,,,,,,,213.6266834900045,None,None,213.6266834900045,None,,,,,,,207.79371870000614,210.54403180000372,207.79371870000614,210.54403180000372,210.27739600000496,None,0.16411209999932908,0.31475429999409243,0.46411970000190195,0.6141095999919344,0.7641853999957675,0.914100399997551,1.064076099995873,1.2140608999907272,1.3640751999919303,1.514096500002779,,,,,210.77686499999254,None,210.77686499999254,None,212.3101461000042,None,212.3101461000042,None,right,0.8616812999971444,212.3101461000042,None,213.21003129999735,None,213.21003129999735,None,left,0.3858283000008669,213.21003129999735,None,,,001,2021_Mar_17_1137,AB_pic,2020.2.10,59.996316226071606,
AB,lag1,1,4,5,0.1,0.05,0.2,main,,,,,0,30,30,30,,,,,,,brownsugar.jpg,steeringwheel.jpg,fingerprint.jpg,porcupine.jpg,bathtub.jpg,sausage.jpg,foldingchair.jpg,tulip02.jpg,bowlingpin.jpg,footballhelmet.jpg,popcorn.jpg,cobra.jpg,waterfall.jpg,parkingmeter.jpg,whiteout.jpg,football.jpg,windmill.jpg,,,,,,,1,0,7,,,,,.\resources\bathtub.jpg,,,1,,,,,,,,,1,,,,,,,,,219.39291708999662,None,None,219.39291708999662,None,,,,,,,213.643505,216.39356700000644,213.643505,216.39356700000644,216.12648019999324,None,0.1646474000008311,0.31416819999867585,0.46466379999765195,0.6141722999891499,0.7641923999908613,0.914162100001704,1.064161399990553,1.2141202999919187,,,,,,,216.62645379999594,None,216.62645379999594,None,217.85999929999525,None,217.85999929999525,None,left,1.1758113000105368,217.85999929999525,None,219.05963970000448,None,219.05963970000448,None,right,0.3041898000083165,219.05963970000448,None,,,001,2021_Mar_17_1137,AB_pic,2020.2.10,59.996316226071606,
AB,lag4,4,5,9,0.1,0.05,0.2,main,,,,,0,31,31,31,,,,,,,bumpercar.jpg,whiteout.jpg,waterfall.jpg,bowlingpin.jpg,windmill.jpg,funnel.jpg,safe.jpg,bathtub.jpg,steeringwheel.jpg,porcupine.jpg,kite.jpg,foldingchair.jpg,pingpongtable.jpg,mummy.jpg,well.jpg,tulip02.jpg,cobra.jpg,,,,,,,0,0,11,,,,,.\resources\steeringwheel.jpg,,,0,,,,,,,,,1,,,,,,,,,225.62591018999518,None,None,225.62591018999518,None,,,,,,,219.40963460000057,222.1598285999935,219.40963460000057,222.1598285999935,221.89278700000432,None,0.16445919999387115,0.31448549999913666,0.4644774999906076,0.6145023999997647,0.7640831999888178,0.9141150999930687,1.0640112999972189,1.2140137999958824,1.3640135000023292,1.5140110999927856,1.6639867999911075,1.8139779999910388,,,222.39275850000558,None,222.39275850000558,None,224.22609999999986,None,224.22609999999986,None,right,0.8897083000047132,224.22609999999986,None,225.14252910000505,None,225.14252910000505,None,left,0.46130720000655856,225.14252910000505,None,,,001,2021_Mar_17_1137,AB_pic,2020.2.10,59.996316226071606,
AB,lag6,6,3,9,0.1,0.05,0.2,main,,,,,0,32,32,32,,,,,,,acousticguitar02.jpg,brownsugar.jpg,bowlingpin.jpg,boat.jpg,waterfall.jpg,tulip02.jpg,safe.jpg,bathtub.jpg,popcorn.jpg,cobra.jpg,ipad02.jpg,cow.jpg,porcupine.jpg,fingerprint.jpg,well.jpg,mummy.jpg,pingpongtable.jpg,,,,,,,0,0,11,,,,,.\resources\popcorn.jpg,,,0,,,,,,,,,1,,,,,,,,,231.5754249899939,None,None,231.5754249899939,None,,,,,,,225.64256180000666,228.39280560000043,225.64256180000666,228.39280560000043,228.12572779999755,None,0.16509470000164583,0.31504400000267196,0.4650896999955876,0.6146496000001207,0.7646439999953145,0.9145906000048853,1.0646225999953458,1.214626600005431,1.36457540000265,1.5145817000011448,1.6645755000063218,1.814564700005576,,,228.62567500000296,None,228.62567500000296,None,230.45888819999527,None,230.45888819999527,None,right,0.6169645000045421,230.45888819999527,None,231.10884369999985,None,231.10884369999985,None,right,0.4389480999961961,231.10884369999985,None,,,001,2021_Mar_17_1137,AB_pic,2020.2.10,59.996316226071606,
AB,lag2,2,3,5,0.1,0.05,0.2,main,,,,,0,33,33,33,,,,,,,fingerprint.jpg,boat.jpg,bathtub.jpg,football.jpg,funnel.jpg,sausage.jpg,footballhelmet.jpg,ipad02.jpg,waterfall.jpg,parkingmeter.jpg,mummy.jpg,bowlingpin.jpg,tulip02.jpg,porcupine.jpg,popcorn.jpg,foldingchair.jpg,cow.jpg,,,,,,,0,0,7,,,,,.\resources\funnel.jpg,,,0,,,,,,,,,1,,,,,,,,,238.10840539000054,None,None,238.10840539000054,None,,,,,,,231.59225070000684,234.34236290000263,231.59225070000684,234.34236290000263,234.07532030000584,None,0.16451210000377614,0.31455799999821465,0.4644902000000002,0.6141757000004873,0.7640659000026062,0.9140480000060052,1.0640505000046687,1.2140337000018917,,,,,,,234.5752480999945,None,234.5752480999945,None,235.80865710000216,None,235.80865710000216,None,right,0.6431422999885399,235.80865710000216,None,236.4919246000063,None,236.4919246000063,None,left,1.6000112000037916,236.4919246000063,None,,,001,2021_Mar_17_1137,AB_pic,2020.2.10,59.996316226071606,
AB,lag5,5,4,9,0.1,0.05,0.2,main,,,,,0,34,34,34,,,,,,,popcorn.jpg,parkingmeter.jpg,brownsugar.jpg,acousticguitar02.jpg,pingpongtable.jpg,sink.jpg,funnel.jpg,tulip02.jpg,windmill.jpg,cobra.jpg,boat.jpg,sausage.jpg,bathtub.jpg,mummy.jpg,football.jpg,kite.jpg,waterfall.jpg,,,,,,,0,1,11,,,,,.\resources\windmill.jpg,,,0,,,,,,,,,0,,,,,,,,,244.24134948999853,None,None,244.24134948999853,None,,,,,,,238.1250902000029,240.87533910000639,238.1250902000029,240.87533910000639,240.6086351999984,None,0.16423750000831205,0.3142635000112932,0.46423340000910684,0.614202299999306,0.764213500006008,0.9141882000112673,1.0637774000060745,1.2137511000037193,1.3637128000118537,1.513721399998758,1.6636901000019861,1.8136877000069944,,,241.10818379999546,None,241.10818379999546,None,242.9414231999981,None,242.9414231999981,None,right,0.6463995999947656,242.9414231999981,None,243.60801909999282,None,243.60801909999282,None,left,0.6038237999891862,243.60801909999282,None,,,001,2021_Mar_17_1137,AB_pic,2020.2.10,59.996316226071606,
AB,lag7,7,5,12,0.1,0.05,0.2,main,,,,,0,35,35,35,,,,,,,tulip02.jpg,kite.jpg,boat.jpg,funnel.jpg,brownsugar.jpg,popcorn.jpg,ipad02.jpg,mummy.jpg,sink.jpg,bathtub.jpg,fingerprint.jpg,footballhelmet.jpg,cow.jpg,sausage.jpg,parkingmeter.jpg,windmill.jpg,pingpongtable.jpg,,,,,,,0,0,14,,,,,.\resources\footballhelmet.jpg,,,0,,,,,,,,,1,,,,,,,,,250.15758389000547,None,None,250.15758389000547,None,,,,,,,244.25802880000265,247.00821359999827,244.25802880000265,247.00821359999827,246.74155160000373,None,0.1647503999993205,0.3147372999956133,0.465306199999759,0.6146708000014769,0.7647096000000602,0.9142879999999423,1.0643282999953954,1.2142887999943923,1.3642989999934798,1.514305200005765,1.6642357999953674,1.8141974000027403,1.9642271000047913,2.1142159000009997,247.2411129999964,None,247.2411129999964,None,249.52434930000163,None,249.52434930000163,None,right,0.3434689999994589,249.52434930000163,None,249.90776040000492,None,249.90776040000492,None,right,0.2320373000111431,249.90776040000492,None,2.2641873999964446,,001,2021_Mar_17_1137,AB_pic,2020.2.10,59.996316226071606,
AB,lag5,5,5,10,0.1,0.05,0.2,main,,,,,0,36,36,36,,,,,,,cobra.jpg,windmill.jpg,ipad02.jpg,cow.jpg,waterfall.jpg,popcorn.jpg,bowlingpin.jpg,brownsugar.jpg,safe.jpg,boat.jpg,footballhelmet.jpg,steeringwheel.jpg,sink.jpg,kite.jpg,bathtub.jpg,acousticguitar02.jpg,sausage.jpg,,,,,,,0,1,12,,,,,.\resources\boat.jpg,,,0,,,,,,,,,0,,,,,,,,,256.4571781900042,None,None,256.4571781900042,None,,,,,,,250.17426699999487,252.92448109999532,250.17426699999487,252.92448109999532,252.65786760000628,None,0.16510220000054687,0.3151001000078395,0.4651381000003312,0.6150925000110874,0.7651158000080613,0.9150710000103572,1.0646323000109987,1.2146234000101686,1.3645839000091655,1.5146822000097018,1.6646268000040436,1.8145523999992292,1.9646389999979874,,253.15738459999557,None,253.15738459999557,None,255.14063049999822,None,255.14063049999822,None,right,0.775155099996482,255.14063049999822,None,255.95731830000295,None,255.95731830000295,None,left,0.4784672999958275,255.95731830000295,None,,,001,2021_Mar_17_1137,AB_pic,2020.2.10,59.996316226071606,
AB,lag7,7,3,10,0.1,0.05,0.2,main,,,,,0,37,37,37,,,,,,,safe.jpg,tulip02.jpg,whiteout.jpg,cow.jpg,bumpercar.jpg,fingerprint.jpg,bowlingpin.jpg,shower.jpg,parkingmeter.jpg,brownsugar.jpg,football.jpg,boat.jpg,windmill.jpg,bathtub.jpg,kite.jpg,waterfall.jpg,mummy.jpg,,,,,,,0,0,12,,,,,.\resources\brownsugar.jpg,,,0,,,,,,,,,1,,,,,,,,,262.0901611899928,None,None,262.0901611899928,None,,,,,,,256.47384960000636,259.2241467999993,256.47384960000636,259.2241467999993,258.95708880000166,None,0.1646370999951614,0.31506720000470523,0.4650601000030292,0.6145946000033291,0.7646509000041988,0.9145756000070833,1.0645719000021927,1.2145873999979813,1.3645726999966428,1.5145345000055386,1.6645713000034448,1.814561399995,1.9645492999989074,,259.45699859999877,None,259.45699859999877,None,261.4404000000068,None,261.4404000000068,None,right,0.3473763000074541,261.4404000000068,None,261.8235261999944,None,261.8235261999944,None,right,0.23632480000378564,261.8235261999944,None,,,001,2021_Mar_17_1137,AB_pic,2020.2.10,59.996316226071606,
AB,lag4,4,3,7,0.1,0.05,0.2,main,,,,,0,38,38,38,,,,,,,bathtub.jpg,bowlingpin.jpg,sausage.jpg,whiteout.jpg,safe.jpg,boat.jpg,tulip02.jpg,steeringwheel.jpg,porcupine.jpg,funnel.jpg,parkingmeter.jpg,windmill.jpg,brownsugar.jpg,pingpongtable.jpg,foldingchair.jpg,waterfall.jpg,acousticguitar02.jpg,,,,,,,0,1,9,,,,,.\resources\tulip02.jpg,,,0,,,,,,,,,0,,,,,,,,,267.8897763900051,None,None,267.8897763900051,None,,,,,,,262.10681009999826,264.85704600000463,262.10681009999826,264.85704600000463,264.590440400003,None,0.16388440001173876,0.3138515000027837,0.4639173000032315,0.6138746000069659,0.7638407000049483,0.9138947000028566,1.0637497000134317,1.2137748000095598,1.3638058000069577,1.5137864999996964,,,,,265.0899356000009,None,265.0899356000009,None,266.62319969999953,None,266.62319969999953,None,right,0.8045816999947419,266.62319969999953,None,267.47315200000594,None,267.47315200000594,None,left,0.3946265999984462,267.47315200000594,None,,,001,2021_Mar_17_1137,AB_pic,2020.2.10,59.996316226071606,
AB,lag3,3,5,8,0.1,0.05,0.2,main,,,,,0,39,39,39,,,,,,,sink.jpg,bowlingpin.jpg,boat.jpg,safe.jpg,waterfall.jpg,footballhelmet.jpg,football.jpg,windmill.jpg,bumpercar.jpg,tulip02.jpg,cobra.jpg,bathtub.jpg,cow.jpg,ipad02.jpg,fingerprint.jpg,foldingchair.jpg,acousticguitar02.jpg,,,,,,,1,0,10,,,,,.\resources\windmill.jpg,,,1,,,,,,,,,1,,,,,,,,,273.6727422900032,None,None,273.6727422900032,None,,,,,,,267.9064473000035,270.6567737000005,267.9064473000035,270.6567737000005,270.39005099999486,None,0.16449370000918861,0.313831300009042,0.46376160001091193,0.6137721000122838,0.76392680000572,0.913780200004112,1.063768500011065,1.2137056000065058,1.3636986000055913,1.5137241000047652,1.6637170000030892,,,,270.88958780000394,None,270.88958780000394,None,272.5730195000069,None,272.5730195000069,None,left,0.7987651000003098,272.5730195000069,None,273.4060967999976,None,273.4060967999976,None,right,0.23769419999734964,273.4060967999976,None,,,001,2021_Mar_17_1137,AB_pic,2020.2.10,59.996316226071606,
AB,lag2,2,4,6,0.1,0.05,0.2,main,,,,,0,40,40,40,,,,,,,popcorn.jpg,porcupine.jpg,foldingchair.jpg,fingerprint.jpg,bumpercar.jpg,brownsugar.jpg,bowlingpin.jpg,boat.jpg,footballhelmet.jpg,cobra.jpg,cow.jpg,safe.jpg,bathtub.jpg,football.jpg,parkingmeter.jpg,waterfall.jpg,sausage.jpg,,,,,,,1,0,8,,,,,.\resources\brownsugar.jpg,,,1,,,,,,,,,1,,,,,,,,,279.1723642900062,None,None,279.1723642900062,None,,,,,,,273.68942520000564,276.4396479999996,273.68942520000564,276.4396479999996,276.1730394000042,None,0.16465409999364056,0.3150671000039438,0.4650723999948241,0.6145824999985052,0.7646252999984426,0.9145938000001479,1.0645946000004187,1.2146034000033978,1.3645792000024812,,,,,,276.67250509999576,None,276.67250509999576,None,278.0559393000003,None,278.0559393000003,None,left,0.8278454999963287,278.0559393000003,None,278.9223884999956,None,278.9223884999956,None,right,0.22537639999063686,278.9223884999956,None,,,001,2021_Mar_17_1137,AB_pic,2020.2.10,59.996316226071606,
AB,lag1,1,4,5,0.1,0.05,0.2,main,,,,,0,41,41,41,,,,,,,popcorn.jpg,footballhelmet.jpg,well.jpg,foldingchair.jpg,funnel.jpg,shower.jpg,tulip02.jpg,steeringwheel.jpg,football.jpg,cow.jpg,kite.jpg,mummy.jpg,fingerprint.jpg,sausage.jpg,whiteout.jpg,bumpercar.jpg,sink.jpg,,,,,,,0,0,7,,,,,.\resources\funnel.jpg,,,0,,,,,,,,,1,,,,,,,,,285.4552708900039,None,None,285.4552708900039,None,,,,,,,279.18918279999343,281.9392763000069,279.18918279999343,281.9392763000069,281.67265740000585,None,0.16435169999022037,0.3143500000005588,0.46435149999160785,0.6142561000015121,0.7642727999918861,0.9143058999907225,1.0643337999936193,1.214278599989484,,,,,,,282.17218209999555,None,282.17218209999555,None,283.40557820000686,None,283.40557820000686,None,right,1.054196500001126,283.40557820000686,None,284.50546489999397,None,284.50546489999397,None,left,0.9303245000046445,284.50546489999397,None,,,001,2021_Mar_17_1137,AB_pic,2020.2.10,59.996316226071606,
AB,lag6,6,5,11,0.1,0.05,0.2,main,,,,,0,42,42,42,,,,,,,mummy.jpg,cobra.jpg,pingpongtable.jpg,footballhelmet.jpg,parkingmeter.jpg,safe.jpg,ipad02.jpg,porcupine.jpg,whiteout.jpg,kite.jpg,foldingchair.jpg,steeringwheel.jpg,brownsugar.jpg,windmill.jpg,sink.jpg,waterfall.jpg,sausage.jpg,,,,,,,1,0,13,,,,,.\resources\foldingchair.jpg,,,1,,,,,,,,,1,,,,,,,,,291.6881566900003,None,None,291.6881566900003,None,,,,,,,285.47196399999666,288.22176869999385,285.47196399999666,288.22176869999385,287.95510389999254,None,0.1645074999978533,0.3145146999886492,0.46448640000016894,0.6144746999925701,0.7644623999949545,0.9144999999989523,1.0644450999971014,1.2144239999906858,1.364430599991465,1.5144366999884369,1.6644149999920046,1.8144082999933744,1.9643882999953348,2.1144405999948503,288.4551075000054,None,288.4551075000054,None,290.5883230000036,None,290.5883230000036,None,left,0.8794536000059452,290.5883230000036,None,291.5050091000012,None,291.5050091000012,None,right,0.15481589999399148,291.5050091000012,None,,,001,2021_Mar_17_1137,AB_pic,2020.2.10,59.996316226071606,
AB,lag5,5,5,10,0.1,0.05,0.2,main,,,,,0,43,43,43,,,,,,,fingerprint.jpg,sausage.jpg,whiteout.jpg,ipad02.jpg,bathtub.jpg,football.jpg,pingpongtable.jpg,brownsugar.jpg,mummy.jpg,shower.jpg,cobra.jpg,sink.jpg,cow.jpg,footballhelmet.jpg,foldingchair.jpg,boat.jpg,windmill.jpg,,,,,,,0,0,12,,,,,.\resources\shower.jpg,,,0,,,,,,,,,1,,,,,,,,,297.2211542899924,None,None,297.2211542899924,None,,,,,,,291.70484679999936,294.45508040000277,291.70484679999936,294.45508040000277,294.1884351000044,None,0.1644491999904858,0.31442349999269936,0.46443059999728575,0.6140127999969991,0.764000399998622,0.9139942999900086,1.0639930000033928,1.2140317000012146,1.364012799996999,1.5139755999989575,1.6639560000039637,1.813938799998141,1.964029599999776,,294.6879795999994,None,294.6879795999994,None,296.67116110000643,None,296.67116110000643,None,right,0.32457240000076126,296.67116110000643,None,297.03777880000416,None,297.03777880000416,None,right,0.15797610000299755,297.03777880000416,None,,,001,2021_Mar_17_1137,AB_pic,2020.2.10,59.996316226071606,
AB,lag7,7,5,12,0.1,0.05,0.2,main,,,,,0,44,44,44,,,,,,,popcorn.jpg,fingerprint.jpg,porcupine.jpg,tulip02.jpg,cobra.jpg,footballhelmet.jpg,bumpercar.jpg,shower.jpg,ipad02.jpg,football.jpg,well.jpg,sausage.jpg,mummy.jpg,cow.jpg,kite.jpg,windmill.jpg,acousticguitar02.jpg,,,,,,,1,0,14,,,,,.\resources\sausage.jpg,,,1,,,,,,,,,1,,,,,,,,,303.5707410899951,None,None,303.5707410899951,None,,,,,,,297.2378308000043,299.9880947000056,297.2378308000043,299.9880947000056,299.72135769999295,None,0.16514579999784473,0.31511070000124164,0.4651354000088759,0.6150656999961939,0.7650720999954501,0.9151363999990281,1.0646717000054196,1.2146577000094112,1.3646315000078175,1.5145967999997083,1.6645745999994688,1.8146226999961073,1.9645965000090655,2.114551799997571,300.2209531999979,None,300.2209531999979,None,302.5042512999935,None,302.5042512999935,None,left,0.8675212000089232,302.5042512999935,None,303.40421290000086,None,303.40421290000086,None,right,0.14353669999400154,303.40421290000086,None,2.2645360000024084,,001,2021_Mar_17_1137,AB_pic,2020.2.10,59.996316226071606,
AB,lag3,3,4,7,0.1,0.05,0.2,main,,,,,0,45,45,45,,,,,,,foldingchair.jpg,fingerprint.jpg,football.jpg,footballhelmet.jpg,well.jpg,safe.jpg,cow.jpg,steeringwheel.jpg,waterfall.jpg,whiteout.jpg,parkingmeter.jpg,windmill.jpg,acousticguitar02.jpg,bowlingpin.jpg,sink.jpg,bathtub.jpg,brownsugar.jpg,,,,,,,0,0,9,,,,,.\resources\cow.jpg,,,0,,,,,,,,,1,,,,,,,,,309.87028618999756,None,None,309.87028618999756,None,,,,,,,303.58740400000534,306.3376894999965,303.58740400000534,306.3376894999965,306.07056950000697,None,0.1637551000021631,0.314132100000279,0.46372069999051746,0.6136748999997508,0.7637108999915654,0.9136896999989403,1.063684299995657,1.2136615999916103,1.3636886999884155,1.5136505999980727,,,,,306.5705467999942,None,306.5705467999942,None,308.1037607000035,None,308.1037607000035,None,left,1.5720892000099411,308.1037607000035,None,309.70366790000116,None,309.70366790000116,None,right,0.14015710000239778,309.70366790000116,None,,,001,2021_Mar_17_1137,AB_pic,2020.2.10,59.996316226071606,
AB,lag2,2,5,7,0.1,0.05,0.2,main,,,,,0,46,46,46,,,,,,,bowlingpin.jpg,shower.jpg,cobra.jpg,boat.jpg,cow.jpg,safe.jpg,funnel.jpg,bathtub.jpg,whiteout.jpg,porcupine.jpg,sausage.jpg,kite.jpg,well.jpg,fingerprint.jpg,brownsugar.jpg,parkingmeter.jpg,sink.jpg,,,,,,,0,0,9,,,,,.\resources\funnel.jpg,,,0,,,,,,,,,1,,,,,,,,,315.003303890003,None,None,315.003303890003,None,,,,,,,309.88705829999526,312.63724250000087,309.88705829999526,312.63724250000087,312.37056189999566,None,0.16451129999768455,0.31409939999866765,0.4640558999963105,0.6140797999978531,0.7640602000028593,0.9140650999906939,1.0640604999935022,1.2140448999998625,1.3640275999932783,1.5140256000013324,,,,,312.8701211000007,None,312.8701211000007,None,314.40335629999754,None,314.40335629999754,None,right,0.39243449999776203,314.40335629999754,None,314.83665899999323,None,314.83665899999323,None,right,0.15110239999194164,314.83665899999323,None,,,001,2021_Mar_17_1137,AB_pic,2020.2.10,59.996316226071606,
AB,lag6,6,5,11,0.1,0.05,0.2,main,,,,,0,47,47,47,,,,,,,steeringwheel.jpg,bumpercar.jpg,mummy.jpg,bathtub.jpg,tulip02.jpg,foldingchair.jpg,windmill.jpg,parkingmeter.jpg,waterfall.jpg,funnel.jpg,cobra.jpg,kite.jpg,sausage.jpg,safe.jpg,ipad02.jpg,sink.jpg,well.jpg,,,,,,,0,0,13,,,,,.\resources\cobra.jpg,,,0,,,,,,,,,1,,,,,,,,,321.58624279000213,None,None,321.58624279000213,None,,,,,,,315.0199805000011,317.77021639999293,315.0199805000011,317.77021639999293,317.5035776000004,None,0.16501170000992715,0.31506809999700636,0.4646407999971416,0.6149760999978753,0.7649692999984836,0.9150234999979148,1.065003900002921,1.2145821000012802,1.3645209000096656,1.5145134000049438,1.6645617000031052,1.8144919000042137,1.9645342000003438,2.114472300003399,318.0031045999931,None,318.0031045999931,None,320.1363032999943,None,320.1363032999943,None,right,0.9635345999995479,320.1363032999943,None,321.13622299999406,None,321.13622299999406,None,right,0.41981560000567697,321.13622299999406,None,,,001,2021_Mar_17_1137,AB_pic,2020.2.10,59.996316226071606,
AB,lag1,1,4,5,0.1,0.05,0.2,main,,,,,0,48,48,48,,,,,,,pingpongtable.jpg,steeringwheel.jpg,sink.jpg,funnel.jpg,bowlingpin.jpg,foldingchair.jpg,waterfall.jpg,fingerprint.jpg,mummy.jpg,cow.jpg,bumpercar.jpg,kite.jpg,tulip02.jpg,windmill.jpg,brownsugar.jpg,acousticguitar02.jpg,bathtub.jpg,,,,,,,0,0,7,,,,,.\resources\bowlingpin.jpg,,,0,,,,,,,,,1,,,,,,,,,327.1191690900043,None,None,327.1191690900043,None,,,,,,,321.60287750000134,324.35311919999367,321.60287750000134,324.35311919999367,324.0860571999947,None,0.16400640000938438,0.314007799999672,0.4639910999976564,0.6135631000070134,0.7635680000093998,0.9135405999986688,1.063576100001228,1.2135328000003938,,,,,,,324.58603190000576,None,324.58603190000576,None,325.8192579000024,None,325.8192579000024,None,right,1.032641900004819,325.8192579000024,None,326.8858773999964,None,326.8858773999964,None,right,0.20589749999635387,326.8858773999964,None,,,001,2021_Mar_17_1137,AB_pic,2020.2.10,59.996316226071606,
AB,lag4,4,3,7,0.1,0.05,0.2,main,,,,,0,49,49,49,,,,,,,parkingmeter.jpg,fingerprint.jpg,porcupine.jpg,pingpongtable.jpg,kite.jpg,footballhelmet.jpg,bumpercar.jpg,sausage.jpg,boat.jpg,well.jpg,brownsugar.jpg,tulip02.jpg,cobra.jpg,whiteout.jpg,bowlingpin.jpg,football.jpg,bathtub.jpg,,,,,,,0,0,9,,,,,.\resources\bumpercar.jpg,,,0,,,,,,,,,1,,,,,,,,,332.4354831900011,None,None,332.4354831900011,None,,,,,,,327.1358437000017,329.8860954999982,327.1358437000017,329.8860954999982,329.6194392000034,None,0.16491760000644717,0.31490820000180975,0.4648917000013171,0.6148650999966776,0.7648856000014348,0.9149229000031482,1.0644171000021743,1.2144872000062605,1.3644078000070294,1.5144738999952096,,,,,330.1189751000056,None,330.1189751000056,None,331.6523750000051,None,331.6523750000051,None,right,0.5195397999923443,331.6523750000051,None,332.20219359999464,None,332.20219359999464,None,right,0.2096292999922298,332.20219359999464,None,,,001,2021_Mar_17_1137,AB_pic,2020.2.10,59.996316226071606,
AB,lag3,3,4,7,0.1,0.05,0.2,main,,,,,0,50,50,50,,,,,,,shower.jpg,sink.jpg,kite.jpg,safe.jpg,windmill.jpg,footballhelmet.jpg,ipad02.jpg,parkingmeter.jpg,foldingchair.jpg,mummy.jpg,brownsugar.jpg,fingerprint.jpg,funnel.jpg,whiteout.jpg,cobra.jpg,popcorn.jpg,football.jpg,,,,,,,0,0,9,,,,,.\resources\ipad02.jpg,,,0,,,,,,,,,1,,,,,,,,,337.5851691900054,None,None,337.5851691900054,None,,,,,,,332.45215919999464,335.2024112999934,332.45215919999464,335.2024112999934,334.93532530000084,None,0.16420039998774882,0.3141903999930946,0.46418459998676553,0.6142014999932144,0.7637255999870831,0.9137480999925174,1.0637321999965934,1.2137574999942444,1.363700699992478,1.5137229999963893,,,,,335.45239500000025,None,335.45239500000025,None,336.96869350000634,None,336.96869350000634,None,right,0.3471953999978723,336.96869350000634,None,337.3518411999976,None,337.3518411999976,None,right,0.20400359999621287,337.3518411999976,None,,,001,2021_Mar_17_1137,AB_pic,2020.2.10,59.996316226071606,
AB,lag7,7,5,12,0.1,0.05,0.2,main,,,,,0,51,51,51,,,,,,,steeringwheel.jpg,bumpercar.jpg,funnel.jpg,windmill.jpg,tulip02.jpg,pingpongtable.jpg,sink.jpg,fingerprint.jpg,kite.jpg,well.jpg,foldingchair.jpg,football.jpg,cobra.jpg,footballhelmet.jpg,safe.jpg,porcupine.jpg,cow.jpg,,,,,,,0,0,14,,,,,.\resources\football.jpg,,,0,,,,,,,,,1,,,,,,,,,345.5179805899999,None,None,345.5179805899999,None,,,,,,,337.6018211000046,340.3520600000047,337.6018211000046,340.3520600000047,340.08501939999405,None,0.16424290000577457,0.31382359999406617,0.4642572000011569,0.6138180999987526,0.7638074999995297,0.9137786999926902,1.0638202999980422,1.2138084000034723,1.3637660999957006,1.5137449000030756,1.6637388999952236,1.8137747000000672,1.963778799996362,2.1137019000016153,340.58497050000005,None,340.58497050000005,None,342.86815480000223,None,342.86815480000223,None,left,2.4238021000055596,342.86815480000223,None,345.31797370000277,None,345.31797370000277,None,right,0.1738138000073377,345.31797370000277,None,2.2637023999996018,,001,2021_Mar_17_1137,AB_pic,2020.2.10,59.996316226071606,
AB,lag1,1,5,6,0.1,0.05,0.2,main,,,,,0,52,52,52,,,,,,,pingpongtable.jpg,acousticguitar02.jpg,bumpercar.jpg,waterfall.jpg,porcupine.jpg,windmill.jpg,brownsugar.jpg,footballhelmet.jpg,funnel.jpg,mummy.jpg,boat.jpg,sink.jpg,tulip02.jpg,ipad02.jpg,parkingmeter.jpg,fingerprint.jpg,cobra.jpg,,,,,,,0,0,8,,,,,.\resources\windmill.jpg,,,0,,,,,,,,,1,,,,,,,,,352.0675402899971,None,None,352.0675402899971,None,,,,,,,345.53466859999753,348.2848981999996,345.53466859999753,348.2848981999996,348.0178193000029,None,0.1638777000043774,0.3142911000031745,0.4642429999948945,0.6138177999964682,0.7637639000022318,0.9137700999999652,1.0637532999971882,1.2137244000041392,1.3637159000063548,,,,,,348.5177915999957,None,348.5177915999957,None,349.90103599999566,None,349.90103599999566,None,right,1.6547525000059977,349.90103599999566,None,351.6009180999972,None,351.6009180999972,None,left,0.4350852999923518,351.6009180999972,None,,,001,2021_Mar_17_1137,AB_pic,2020.2.10,59.996316226071606,
AB,lag4,4,4,8,0.1,0.05,0.2,main,,,,,0,53,53,53,,,,,,,acousticguitar02.jpg,windmill.jpg,steeringwheel.jpg,porcupine.jpg,shower.jpg,kite.jpg,bathtub.jpg,waterfall.jpg,bumpercar.jpg,boat.jpg,brownsugar.jpg,foldingchair.jpg,cobra.jpg,ipad02.jpg,safe.jpg,sink.jpg,well.jpg,,,,,,,1,0,10,,,,,.\resources\waterfall.jpg,,,1,,,,,,,,,1,,,,,,,,,359.36709428999455,None,None,359.36709428999455,None,,,,,,,352.08419579999463,354.8344882999954,352.08419579999463,354.8344882999954,354.5678201999981,None,0.16437610000139102,0.3143627999961609,0.46434469999803696,0.6143981000059284,0.7643427000002703,0.914317899994785,1.0643031999934465,1.2142911999981152,1.3642945000028703,1.5142777000000933,1.6643223999999464,,,,355.0673616999993,None,355.0673616999993,None,356.7507906999963,None,356.7507906999963,None,left,2.396985700004734,356.7507906999963,None,359.1839287000039,None,359.1839287000039,None,right,0.16390309999405872,359.1839287000039,None,,,001,2021_Mar_17_1137,AB_pic,2020.2.10,59.996316226071606,
AB,lag6,6,5,11,0.1,0.05,0.2,main,,,,,0,54,54,54,,,,,,,well.jpg,pingpongtable.jpg,bumpercar.jpg,porcupine.jpg,sausage.jpg,football.jpg,shower.jpg,cobra.jpg,bowlingpin.jpg,tulip02.jpg,acousticguitar02.jpg,windmill.jpg,boat.jpg,cow.jpg,sink.jpg,parkingmeter.jpg,brownsugar.jpg,,,,,,,1,0,13,,,,,.\resources\acousticguitar02.jpg,,,1,,,,,,,,,1,,,,,,,,,365.5833456900029,None,None,365.5833456900029,None,,,,,,,359.383739900004,362.1335783999966,359.383739900004,362.1335783999966,361.86690870000166,None,0.1640866000088863,0.3140655000024708,0.46406120000756346,0.614035699996748,0.764022000003024,0.9140063000086229,1.0640034999960335,1.213982200002647,1.3639739000063855,1.5139658999978565,1.6639540000032866,1.8139461999962805,1.963974700003746,2.1139249999978347,362.3668941999931,None,362.3668941999931,None,364.5002469000028,None,364.5002469000028,None,left,0.9116287999931956,364.5002469000028,None,365.450006900006,None,365.450006900006,None,right,0.10573790001217276,365.450006900006,None,,,001,2021_Mar_17_1137,AB_pic,2020.2.10,59.996316226071606,
AB,lag2,2,4,6,0.1,0.05,0.2,main,,,,,0,55,55,55,,,,,,,steeringwheel.jpg,mummy.jpg,shower.jpg,kite.jpg,footballhelmet.jpg,porcupine.jpg,pingpongtable.jpg,popcorn.jpg,bowlingpin.jpg,tulip02.jpg,foldingchair.jpg,safe.jpg,windmill.jpg,sink.jpg,bathtub.jpg,well.jpg,sausage.jpg,,,,,,,0,0,8,,,,,.\resources\porcupine.jpg,,,0,,,,,,,,,1,,,,,,,,,371.96622998999663,None,None,371.96622998999663,None,,,,,,,365.60000380000565,368.3498516999971,365.60000380000565,368.3498516999971,368.08319309999933,None,0.16435829999682028,0.31427740000071935,0.4643325999932131,0.6142562000022735,0.7643126999901142,0.914311300002737,1.0643146999937017,1.214221499991254,1.3642627999943215,,,,,,368.5831545999972,None,368.5831545999972,None,369.9663889999938,None,369.9663889999938,None,left,1.861346899997443,369.9663889999938,None,371.8495680000051,None,371.8495680000051,None,right,0.09819800000695977,371.8495680000051,None,,,001,2021_Mar_17_1137,AB_pic,2020.2.10,59.996316226071606,
AB,lag5,5,4,9,0.1,0.05,0.2,main,,,,,0,56,56,56,,,,,,,well.jpg,parkingmeter.jpg,sink.jpg,mummy.jpg,bumpercar.jpg,porcupine.jpg,windmill.jpg,boat.jpg,foldingchair.jpg,waterfall.jpg,tulip02.jpg,pingpongtable.jpg,cobra.jpg,bowlingpin.jpg,steeringwheel.jpg,fingerprint.jpg,shower.jpg,,,,,,,0,0,11,,,,,.\resources\foldingchair.jpg,,,0,,,,,,,,,1,,,,,,,,,378.7324716899922,None,None,378.7324716899922,None,,,,,,,371.98302440000407,374.73312439999427,371.98302440000407,374.73312439999427,374.4665165000042,None,0.16405479999957606,0.3140412000066135,0.46404200000688434,0.6140237000072375,0.764031700004125,0.9140198999957647,1.0639962999994168,1.2135779000091134,1.3635656999977073,1.5135479000018677,1.6635728999972343,1.813527599995723,,,374.9660479000013,None,374.9660479000013,None,376.7992818000057,None,376.7992818000057,None,right,1.7004573000012897,376.7992818000057,None,378.5325240999955,None,378.5325240999955,None,right,0.18326710000110324,378.5325240999955,None,,,001,2021_Mar_17_1137,AB_pic,2020.2.10,59.996316226071606,
AB,lag2,2,3,5,0.1,0.05,0.2,main,,,,,0,57,57,57,,,,,,,fingerprint.jpg,porcupine.jpg,well.jpg,bathtub.jpg,whiteout.jpg,popcorn.jpg,pingpongtable.jpg,mummy.jpg,bowlingpin.jpg,boat.jpg,sink.jpg,ipad02.jpg,windmill.jpg,football.jpg,shower.jpg,cobra.jpg,funnel.jpg,,,,,,,0,1,7,,,,,.\resources\whiteout.jpg,,,0,,,,,,,,,0,,,,,,,,,386.74858248999516,None,None,386.74858248999516,None,,,,,,,378.74914879999415,381.4993451000046,378.74914879999415,381.4993451000046,381.2326885999937,None,0.16452000000572298,0.3144845000060741,0.46409150000545196,0.6140969999978552,0.7640564000030281,0.9141040000104113,1.064037800009828,1.2140392000001157,,,,,,,381.7322514999978,None,381.7322514999978,None,382.9655170000042,None,382.9655170000042,None,right,2.798208699998213,382.9655170000042,None,385.7986571999936,None,385.7986571999936,None,left,0.9250431999971624,385.7986571999936,None,,,001,2021_Mar_17_1137,AB_pic,2020.2.10,59.996316226071606,
,,,,,,,,,,,,,,,,,,,,,,,whiteout.jpg,well.jpg,boat.jpg,sausage.jpg,acousticguitar02.jpg,pingpongtable.jpg,funnel.jpg,parkingmeter.jpg,cobra.jpg,kite.jpg,footballhelmet.jpg,bumpercar.jpg,safe.jpg,fingerprint.jpg,shower.jpg,windmill.jpg,mummy.jpg,,,,,,,0,1,13,,,,,.\resources\footballhelmet.jpg,,,0,,,,,,,,,0,,,,,,,,,,,,,,,,,,,,386.7652925000002,389.5154913000006,386.7652925000002,389.5154913000006,389.2488367000042,None,0.164239899997483,0.3142186000040965,0.4638046000036411,0.6137893999984954,0.7638243999972474,0.9137773999973433,1.0637563000054797,1.2137449000001652,1.363755400001537,1.5137305000098422,1.6637180000107037,1.8137037999986205,1.9637186000036309,2.113716799998656,389.7483921999956,None,389.7483921999956,None,391.88172459999623,None,391.88172459999623,None,right,0.9700024999910966,391.88172459999623,None,392.8982064000011,None,392.8982064000011,None,left,0.12145710000186227,392.8982064000011,None,,,,,,,,
