trialType,cndTyp,lag,T1_loc,T2_loc,stimLen,isi,trials.thisRepN,trials.thisTrialN,trials.thisN,trials.thisIndex,img0,img1,img2,img3,img4,img5,img6,img7,img8,img9,img10,img11,img12,img13,img14,img15,img16,lastPresent,polygon.started,polygon.stopped,displayPicture.started,displayPicture.stopped,polygon_2.started,polygon_2.stopped,flipper,opt1_t2,opt2_t2,option1_t1.started,option1_t1.stopped,option2_t1.started,option2_t1.stopped,key_resp.keys,key_resp.rt,key_resp.started,key_resp.stopped,opt1_t1,opt2_t1,option1_t2.started,option1_t2.stopped,option2_t2.started,option2_t2.stopped,key_resp_2.keys,key_resp_2.rt,key_resp_2.started,key_resp_2.stopped,text.started,text.stopped,key_resp_3.keys,key_resp_3.started,key_resp_3.stopped,key_resp_3.rt,participant,session,date,expName,psychopyVersion,frameRate,
AB,lag5,5,4,9,0.05,0.2,0,0,0,102,fishingrod.jpg,noparkingsign.jpg,statue.jpg,snowshovel.jpg,footballhelmet.jpg,chefshat.jpg,mummy.jpg,leafblower01.jpg,stool01.jpg,birdnest.jpg,cruiseship.jpg,eiffeltower.jpg,bench01.jpg,dandelion.jpg,trampoline.jpg,spicerack.jpg,musicsheet.jpg,11,25.176343800034374,None,25.176343800034374,None,25.176343800034374,None,True,C:\Users\Employee\Google Drive\UP\MyResearch\TaskProgramming\AB_pic\resources\stool01.jpg,C:\Users\Employee\Google Drive\UP\MyResearch\TaskProgramming\AB_pic\resources\musicsheet.jpg,28.11698360007722,None,28.11698360007722,None,left,0.9308135999599472,28.11698360007722,None,C:\Users\Employee\Google Drive\UP\MyResearch\TaskProgramming\AB_pic\resources\spicerack.jpg,C:\Users\Employee\Google Drive\UP\MyResearch\TaskProgramming\AB_pic\resources\snowshovel.jpg,29.08354290004354,None,29.08354290004354,None,left,0.5241696999873966,29.08354290004354,None,29.633045940019656,None,None,29.633045940019656,None,,,001,2021_Mar_15_1408,AB_pic,2020.2.10,60.00621663549489,
AB,lag1,1,3,4,0.05,0.2,0,1,1,155,crab01.jpg,doghouse.jpg,swordfish.jpg,spicerack.jpg,eiffeltower.jpg,birdnest.jpg,cruiseship.jpg,pig.jpg,leafblower01.jpg,bowlingball.jpg,banjo.jpg,musicsheet.jpg,dandelion.jpg,christmaslights.jpg,bench01.jpg,church.jpg,fishingrod.jpg,6,29.649715100065805,None,29.649715100065805,None,29.649715100065805,None,False,C:\Users\Employee\Google Drive\UP\MyResearch\TaskProgramming\AB_pic\resources\spicerack.jpg,C:\Users\Employee\Google Drive\UP\MyResearch\TaskProgramming\AB_pic\resources\fishingrod.jpg,31.4166966000339,None,31.4166966000339,None,left,1.0788945000385866,31.4166966000339,None,C:\Users\Employee\Google Drive\UP\MyResearch\TaskProgramming\AB_pic\resources\swordfish.jpg,C:\Users\Employee\Google Drive\UP\MyResearch\TaskProgramming\AB_pic\resources\church.jpg,32.53284260001965,None,32.53284260001965,None,right,2.5948160000843927,32.53284260001965,None,35.14937123999698,None,None,35.14937123999698,None,,,001,2021_Mar_15_1408,AB_pic,2020.2.10,60.00621663549489,
AB,lag2,2,3,5,0.05,0.2,0,2,2,60,showerhead01.jpg,doghouse.jpg,safe.jpg,cupcake.jpg,bowlingball.jpg,jellyfish.jpg,musicsheet.jpg,mailbox02.jpg,crab01.jpg,chefshat.jpg,snowshovel.jpg,fishingrod.jpg,eiffeltower.jpg,mummy.jpg,eyepatch.jpg,swordfish.jpg,cruiseship.jpg,7,35.165970299975015,None,35.165970299975015,None,35.165970299975015,None,False,C:\Users\Employee\Google Drive\UP\MyResearch\TaskProgramming\AB_pic\resources\cruiseship.jpg,C:\Users\Employee\Google Drive\UP\MyResearch\TaskProgramming\AB_pic\resources\bowlingball.jpg,37.16587770008482,None,37.16587770008482,None,right,0.6017812000354752,37.16587770008482,None,C:\Users\Employee\Google Drive\UP\MyResearch\TaskProgramming\AB_pic\resources\swordfish.jpg,C:\Users\Employee\Google Drive\UP\MyResearch\TaskProgramming\AB_pic\resources\safe.jpg,37.79961500002537,None,37.79961500002537,None,left,0.5441005000611767,37.79961500002537,None,38.41578430007212,None,space,38.41578430007212,None,1.4479222999652848,,001,2021_Mar_15_1408,AB_pic,2020.2.10,60.00621663549489,
AB,lag6,6,3,9,0.05,0.2,0,3,3,101,stool01.jpg,doghouse.jpg,mailbox02.jpg,crab01.jpg,eyepatch.jpg,leafblower01.jpg,chefshat.jpg,trampoline.jpg,dandelion.jpg,showerhead01.jpg,spicerack.jpg,swordfish.jpg,cupcake.jpg,bench01.jpg,pig.jpg,eiffeltower.jpg,christmaslights.jpg,11,39.91571750002913,None,39.91571750002913,None,39.91571750002913,None,False,C:\Users\Employee\Google Drive\UP\MyResearch\TaskProgramming\AB_pic\resources\christmaslights.jpg,C:\Users\Employee\Google Drive\UP\MyResearch\TaskProgramming\AB_pic\resources\dandelion.jpg,42.949256299994886,None,42.949256299994886,None,right,0.5144319999963045,42.949256299994886,None,C:\Users\Employee\Google Drive\UP\MyResearch\TaskProgramming\AB_pic\resources\eiffeltower.jpg,C:\Users\Employee\Google Drive\UP\MyResearch\TaskProgramming\AB_pic\resources\mailbox02.jpg,43.49923850002233,None,43.49923850002233,None,left,0.4124399001011625,43.49923850002233,None,43.932575240090955,None,None,43.932575240090955,None,,,001,2021_Mar_15_1408,AB_pic,2020.2.10,60.00621663549489,
AB,lag3,3,5,8,0.05,0.2,0,4,4,50,cupcake.jpg,crab01.jpg,jellybean.jpg,eiffeltower.jpg,birdnest.jpg,mailbox02.jpg,stool01.jpg,showerhead01.jpg,chefshat.jpg,church.jpg,footballhelmet.jpg,musicsheet.jpg,banjo.jpg,magneticcompass.jpg,jellyfish.jpg,sink.jpg,swordfish.jpg,10,43.949188100057654,None,43.949188100057654,None,43.949188100057654,None,True,C:\Users\Employee\Google Drive\UP\MyResearch\TaskProgramming\AB_pic\resources\swordfish.jpg,C:\Users\Employee\Google Drive\UP\MyResearch\TaskProgramming\AB_pic\resources\showerhead01.jpg,46.71569230000023,None,46.71569230000023,None,right,0.5639757999451831,46.71569230000023,None,C:\Users\Employee\Google Drive\UP\MyResearch\TaskProgramming\AB_pic\resources\birdnest.jpg,C:\Users\Employee\Google Drive\UP\MyResearch\TaskProgramming\AB_pic\resources\sink.jpg,47.315683600027114,None,47.315683600027114,None,right,0.48402530001476407,47.315683600027114,None,47.815652340010274,None,None,47.815652340010274,None,,,001,2021_Mar_15_1408,AB_pic,2020.2.10,60.00621663549489,
AB,lag4,4,3,7,0.05,0.2,0,5,5,128,noparkingsign.jpg,stool01.jpg,daddylonglegs.jpg,birdnest.jpg,church.jpg,turnstile.jpg,crab01.jpg,cupcake.jpg,banjo.jpg,mummy.jpg,leafblower01.jpg,swordfish.jpg,cruiseship.jpg,doghouse.jpg,pig.jpg,eiffeltower.jpg,statue.jpg,9,47.84894320007879,None,47.84894320007879,None,47.84894320007879,None,False,C:\Users\Employee\Google Drive\UP\MyResearch\TaskProgramming\AB_pic\resources\crab01.jpg,C:\Users\Employee\Google Drive\UP\MyResearch\TaskProgramming\AB_pic\resources\statue.jpg,50.34883560007438,None,50.34883560007438,None,left,0.4348294000374153,50.34883560007438,None,C:\Users\Employee\Google Drive\UP\MyResearch\TaskProgramming\AB_pic\resources\daddylonglegs.jpg,C:\Users\Employee\Google Drive\UP\MyResearch\TaskProgramming\AB_pic\resources\eiffeltower.jpg,50.81549210008234,None,50.81549210008234,None,right,0.40810989995952696,50.81549210008234,None,51.2487676400342,None,None,51.2487676400342,None,,,001,2021_Mar_15_1408,AB_pic,2020.2.10,60.00621663549489,
AB,lag7,7,5,12,0.05,0.2,0,6,6,59,chefshat.jpg,eyepatch.jpg,trampoline.jpg,statue.jpg,banjo.jpg,church.jpg,bowlingball.jpg,mailbox02.jpg,fishingrod.jpg,doghouse.jpg,crab01.jpg,snowshovel.jpg,safe.jpg,christmaslights.jpg,jellybean.jpg,jellyfish.jpg,treadmill.jpg,,51.26543380005751,None,51.26543380005751,None,51.26543380005751,None,False,C:\Users\Employee\Google Drive\UP\MyResearch\TaskProgramming\AB_pic\resources\treadmill.jpg,C:\Users\Employee\Google Drive\UP\MyResearch\TaskProgramming\AB_pic\resources\snowshovel.jpg,55.03180910006631,None,55.03180910006631,None,left,0.5198967000469565,55.03180910006631,None,C:\Users\Employee\Google Drive\UP\MyResearch\TaskProgramming\AB_pic\resources\banjo.jpg,C:\Users\Employee\Google Drive\UP\MyResearch\TaskProgramming\AB_pic\resources\jellyfish.jpg,55.598432400031015,None,55.598432400031015,None,left,0.5772240000078455,55.598432400031015,None,56.1984179400024,None,None,56.1984179400024,None,,,001,2021_Mar_15_1408,AB_pic,2020.2.10,60.00621663549489,
AB,lag6,6,3,9,0.05,0.2,0,7,7,58,showerhead01.jpg,birdnest.jpg,pig.jpg,daddylonglegs.jpg,church.jpg,eyepatch.jpg,jeans01.jpg,statue.jpg,noparkingsign.jpg,sink.jpg,jellyfish.jpg,turnstile.jpg,magneticcompass.jpg,snowshovel.jpg,bowlingball.jpg,moon.jpg,mummy.jpg,11,56.23173040000256,None,56.23173040000256,None,56.23173040000256,None,False,C:\Users\Employee\Google Drive\UP\MyResearch\TaskProgramming\AB_pic\resources\mummy.jpg,C:\Users\Employee\Google Drive\UP\MyResearch\TaskProgramming\AB_pic\resources\noparkingsign.jpg,59.23154639999848,None,59.23154639999848,None,left,0.4642378999851644,59.23154639999848,None,C:\Users\Employee\Google Drive\UP\MyResearch\TaskProgramming\AB_pic\resources\pig.jpg,C:\Users\Employee\Google Drive\UP\MyResearch\TaskProgramming\AB_pic\resources\moon.jpg,59.73149260005448,None,59.73149260005448,None,left,0.4762933000456542,59.73149260005448,None,60.23150864004856,None,None,60.23150864004856,None,,,001,2021_Mar_15_1408,AB_pic,2020.2.10,60.00621663549489,
AB,lag2,2,3,5,0.05,0.2,0,8,8,91,chefshat.jpg,bench01.jpg,eiffeltower.jpg,statue.jpg,trampoline.jpg,treadmill.jpg,christmaslights.jpg,mummy.jpg,sink.jpg,jeans01.jpg,magneticcompass.jpg,doghouse.jpg,bowlingball.jpg,jellybean.jpg,musicsheet.jpg,spicerack.jpg,cobra.jpg,7,60.264812499983236,None,60.264812499983236,None,60.264812499983236,None,True,C:\Users\Employee\Google Drive\UP\MyResearch\TaskProgramming\AB_pic\resources\cobra.jpg,C:\Users\Employee\Google Drive\UP\MyResearch\TaskProgramming\AB_pic\resources\trampoline.jpg,62.2642385000363,None,62.2642385000363,None,right,0.5594920000294223,62.2642385000363,None,C:\Users\Employee\Google Drive\UP\MyResearch\TaskProgramming\AB_pic\resources\eiffeltower.jpg,C:\Users\Employee\Google Drive\UP\MyResearch\TaskProgramming\AB_pic\resources\spicerack.jpg,62.86464430007618,None,62.86464430007618,None,right,0.47118899994529784,62.86464430007618,None,63.36416634003399,None,None,63.36416634003399,None,,,001,2021_Mar_15_1408,AB_pic,2020.2.10,60.00621663549489,
AB,lag1,1,5,6,0.05,0.2,0,9,9,96,eiffeltower.jpg,church.jpg,noparkingsign.jpg,dandelion.jpg,fishingrod.jpg,daddylonglegs.jpg,leafblower01.jpg,cupcake.jpg,snowshovel.jpg,jeans01.jpg,footballhelmet.jpg,statue.jpg,crab01.jpg,birdnest.jpg,sink.jpg,swordfish.jpg,bowlingball.jpg,8,63.38084220001474,None,63.38084220001474,None,63.38084220001474,None,False,C:\Users\Employee\Google Drive\UP\MyResearch\TaskProgramming\AB_pic\resources\bowlingball.jpg,C:\Users\Employee\Google Drive\UP\MyResearch\TaskProgramming\AB_pic\resources\daddylonglegs.jpg,65.64777809998486,None,65.64777809998486,None,right,0.6559440999990329,65.64777809998486,None,C:\Users\Employee\Google Drive\UP\MyResearch\TaskProgramming\AB_pic\resources\swordfish.jpg,C:\Users\Employee\Google Drive\UP\MyResearch\TaskProgramming\AB_pic\resources\fishingrod.jpg,66.34775890002493,None,66.34775890002493,None,left,1.9238769999938086,66.34775890002493,None,68.29717204003828,None,None,68.29717204003828,None,,,001,2021_Mar_15_1408,AB_pic,2020.2.10,60.00621663549489,
AB,lag5,5,3,8,0.05,0.2,0,10,10,43,cupcake.jpg,dandelion.jpg,musicsheet.jpg,jellybean.jpg,safe.jpg,moon.jpg,crab01.jpg,banjo.jpg,spicerack.jpg,birdnest.jpg,magneticcompass.jpg,church.jpg,trampoline.jpg,pig.jpg,jeans01.jpg,turnstile.jpg,stool01.jpg,10,68.31383600004483,None,68.31383600004483,None,68.31383600004483,None,False,C:\Users\Employee\Google Drive\UP\MyResearch\TaskProgramming\AB_pic\resources\banjo.jpg,C:\Users\Employee\Google Drive\UP\MyResearch\TaskProgramming\AB_pic\resources\stool01.jpg,71.0807855000021,None,71.0807855000021,None,right,0.6870451999129727,71.0807855000021,None,C:\Users\Employee\Google Drive\UP\MyResearch\TaskProgramming\AB_pic\resources\turnstile.jpg,C:\Users\Employee\Google Drive\UP\MyResearch\TaskProgramming\AB_pic\resources\musicsheet.jpg,71.81404379999731,None,71.81404379999731,None,left,0.6818041999358684,71.81404379999731,None,72.51358274003724,None,None,72.51358274003724,None,,,001,2021_Mar_15_1408,AB_pic,2020.2.10,60.00621663549489,
AB,lag7,7,3,10,0.05,0.2,0,11,11,111,musicsheet.jpg,bench01.jpg,pig.jpg,treadmill.jpg,daddylonglegs.jpg,trampoline.jpg,crab01.jpg,leafblower01.jpg,spicerack.jpg,cobra.jpg,jellyfish.jpg,bowlingball.jpg,birdnest.jpg,safe.jpg,mailbox02.jpg,magneticcompass.jpg,turnstile.jpg,12,72.53022610000335,None,72.53022610000335,None,72.53022610000335,None,False,C:\Users\Employee\Google Drive\UP\MyResearch\TaskProgramming\AB_pic\resources\cobra.jpg,C:\Users\Employee\Google Drive\UP\MyResearch\TaskProgramming\AB_pic\resources\turnstile.jpg,75.79711909999605,None,75.79711909999605,None,left,0.37074839998967946,75.79711909999605,None,C:\Users\Employee\Google Drive\UP\MyResearch\TaskProgramming\AB_pic\resources\pig.jpg,C:\Users\Employee\Google Drive\UP\MyResearch\TaskProgramming\AB_pic\resources\magneticcompass.jpg,76.21376160008367,None,76.21376160008367,None,right,0.4259402999887243,76.21376160008367,None,76.66374424000969,None,None,76.66374424000969,None,,,001,2021_Mar_15_1408,AB_pic,2020.2.10,60.00621663549489,
AB,lag6,6,4,10,0.05,0.2,0,12,12,39,chefshat.jpg,mummy.jpg,stool01.jpg,safe.jpg,dandelion.jpg,turnstile.jpg,eiffeltower.jpg,christmaslights.jpg,doghouse.jpg,leafblower01.jpg,noparkingsign.jpg,sink.jpg,crab01.jpg,magneticcompass.jpg,jellybean.jpg,bowlingball.jpg,trampoline.jpg,12,76.69707740005106,None,76.69707740005106,None,76.69707740005106,None,True,C:\Users\Employee\Google Drive\UP\MyResearch\TaskProgramming\AB_pic\resources\leafblower01.jpg,C:\Users\Employee\Google Drive\UP\MyResearch\TaskProgramming\AB_pic\resources\trampoline.jpg,79.96351999999024,None,79.96351999999024,None,right,2.516198999946937,79.96351999999024,None,C:\Users\Employee\Google Drive\UP\MyResearch\TaskProgramming\AB_pic\resources\safe.jpg,C:\Users\Employee\Google Drive\UP\MyResearch\TaskProgramming\AB_pic\resources\bowlingball.jpg,82.51291300007142,None,82.51291300007142,None,right,0.7029708999907598,82.51291300007142,None,83.24624514003517,None,None,83.24624514003517,None,,,001,2021_Mar_15_1408,AB_pic,2020.2.10,60.00621663549489,
AB,lag3,3,4,7,0.05,0.2,0,13,13,35,church.jpg,swordfish.jpg,jellyfish.jpg,mummy.jpg,turnstile.jpg,snowshovel.jpg,banjo.jpg,bowlingball.jpg,statue.jpg,doghouse.jpg,eyepatch.jpg,noparkingsign.jpg,jellybean.jpg,pig.jpg,stool01.jpg,jeans01.jpg,moon.jpg,9,83.2795340999728,None,83.2795340999728,None,83.2795340999728,None,False,C:\Users\Employee\Google Drive\UP\MyResearch\TaskProgramming\AB_pic\resources\banjo.jpg,C:\Users\Employee\Google Drive\UP\MyResearch\TaskProgramming\AB_pic\resources\moon.jpg,85.7797974999994,None,85.7797974999994,None,left,0.6998994000023231,85.7797974999994,None,C:\Users\Employee\Google Drive\UP\MyResearch\TaskProgramming\AB_pic\resources\mummy.jpg,C:\Users\Employee\Google Drive\UP\MyResearch\TaskProgramming\AB_pic\resources\jeans01.jpg,86.51308910001535,None,86.51308910001535,None,right,0.3425885000033304,86.51308910001535,None,86.87974794005277,None,None,86.87974794005277,None,,,001,2021_Mar_15_1408,AB_pic,2020.2.10,60.00621663549489,
AB,lag3,3,3,6,0.05,0.2,0,14,14,106,mailbox02.jpg,jellybean.jpg,christmaslights.jpg,crab01.jpg,snowshovel.jpg,showerhead01.jpg,eyepatch.jpg,jellyfish.jpg,cobra.jpg,dandelion.jpg,chefshat.jpg,spicerack.jpg,jeans01.jpg,moon.jpg,treadmill.jpg,musicsheet.jpg,sink.jpg,8,86.89640570001211,None,86.89640570001211,None,86.89640570001211,None,True,C:\Users\Employee\Google Drive\UP\MyResearch\TaskProgramming\AB_pic\resources\showerhead01.jpg,C:\Users\Employee\Google Drive\UP\MyResearch\TaskProgramming\AB_pic\resources\sink.jpg,89.16292889998294,None,89.16292889998294,None,left,0.8448685000184923,89.16292889998294,None,C:\Users\Employee\Google Drive\UP\MyResearch\TaskProgramming\AB_pic\resources\christmaslights.jpg,C:\Users\Employee\Google Drive\UP\MyResearch\TaskProgramming\AB_pic\resources\musicsheet.jpg,90.04618459998164,None,90.04618459998164,None,right,0.3535209000110626,90.04618459998164,None,90.4290807400248,None,None,90.4290807400248,None,,,001,2021_Mar_15_1408,AB_pic,2020.2.10,60.00621663549489,
AB,lag2,2,5,7,0.05,0.2,0,15,15,13,jellyfish.jpg,jellybean.jpg,leafblower01.jpg,footballhelmet.jpg,cobra.jpg,banjo.jpg,statue.jpg,musicsheet.jpg,noparkingsign.jpg,eyepatch.jpg,cupcake.jpg,jeans01.jpg,trampoline.jpg,showerhead01.jpg,mailbox02.jpg,mummy.jpg,cruiseship.jpg,9,90.44573380006477,None,90.44573380006477,None,90.44573380006477,None,False,C:\Users\Employee\Google Drive\UP\MyResearch\TaskProgramming\AB_pic\resources\cruiseship.jpg,C:\Users\Employee\Google Drive\UP\MyResearch\TaskProgramming\AB_pic\resources\statue.jpg,92.9460041000275,None,92.9460041000275,None,left,0.3976941000437364,92.9460041000275,None,C:\Users\Employee\Google Drive\UP\MyResearch\TaskProgramming\AB_pic\resources\cobra.jpg,C:\Users\Employee\Google Drive\UP\MyResearch\TaskProgramming\AB_pic\resources\mummy.jpg,93.37932830001228,None,93.37932830001228,None,left,0.4525998999597505,93.37932830001228,None,93.86272193997866,None,None,93.86272193997866,None,,,001,2021_Mar_15_1408,AB_pic,2020.2.10,60.00621663549489,
AB,lag4,4,4,8,0.05,0.2,0,16,16,7,statue.jpg,safe.jpg,crab01.jpg,fishingrod.jpg,bowlingball.jpg,dandelion.jpg,mailbox02.jpg,jeans01.jpg,treadmill.jpg,eyepatch.jpg,spicerack.jpg,noparkingsign.jpg,trampoline.jpg,moon.jpg,snowshovel.jpg,banjo.jpg,cruiseship.jpg,10,93.8792669000104,None,93.8792669000104,None,93.8792669000104,None,True,C:\Users\Employee\Google Drive\UP\MyResearch\TaskProgramming\AB_pic\resources\cruiseship.jpg,C:\Users\Employee\Google Drive\UP\MyResearch\TaskProgramming\AB_pic\resources\jeans01.jpg,96.64576039998792,None,96.64576039998792,None,right,0.841993400012143,96.64576039998792,None,C:\Users\Employee\Google Drive\UP\MyResearch\TaskProgramming\AB_pic\resources\banjo.jpg,C:\Users\Employee\Google Drive\UP\MyResearch\TaskProgramming\AB_pic\resources\fishingrod.jpg,97.52903189999051,None,97.52903189999051,None,left,0.6387030000332743,97.52903189999051,None,98.19568974006688,None,None,98.19568974006688,None,,,001,2021_Mar_15_1408,AB_pic,2020.2.10,60.00621663549489,
AB,lag6,6,5,11,0.05,0.2,0,17,17,126,sink.jpg,snowshovel.jpg,moon.jpg,fishingrod.jpg,statue.jpg,footballhelmet.jpg,spicerack.jpg,chefshat.jpg,crab01.jpg,dandelion.jpg,daddylonglegs.jpg,cruiseship.jpg,doghouse.jpg,jellybean.jpg,stool01.jpg,eyepatch.jpg,treadmill.jpg,13,98.2123323000269,None,98.2123323000269,None,98.2123323000269,None,False,C:\Users\Employee\Google Drive\UP\MyResearch\TaskProgramming\AB_pic\resources\treadmill.jpg,C:\Users\Employee\Google Drive\UP\MyResearch\TaskProgramming\AB_pic\resources\daddylonglegs.jpg,101.71210910007358,None,101.71210910007358,None,right,1.8155859999824315,101.71210910007358,None,C:\Users\Employee\Google Drive\UP\MyResearch\TaskProgramming\AB_pic\resources\eyepatch.jpg,C:\Users\Employee\Google Drive\UP\MyResearch\TaskProgramming\AB_pic\resources\statue.jpg,103.56154140003491,None,103.56154140003491,None,left,0.41414290003012866,103.56154140003491,None,103.9948660400114,None,None,103.9948660400114,None,,,001,2021_Mar_15_1408,AB_pic,2020.2.10,60.00621663549489,
AB,lag7,7,5,12,0.05,0.2,0,18,18,66,cupcake.jpg,bench01.jpg,jellyfish.jpg,chefshat.jpg,snowshovel.jpg,jeans01.jpg,mummy.jpg,mailbox02.jpg,magneticcompass.jpg,birdnest.jpg,crab01.jpg,christmaslights.jpg,spicerack.jpg,pig.jpg,statue.jpg,footballhelmet.jpg,dandelion.jpg,,104.01151550002396,None,104.01151550002396,None,104.01151550002396,None,False,C:\Users\Employee\Google Drive\UP\MyResearch\TaskProgramming\AB_pic\resources\dandelion.jpg,C:\Users\Employee\Google Drive\UP\MyResearch\TaskProgramming\AB_pic\resources\christmaslights.jpg,107.7783779000165,None,107.7783779000165,None,left,0.34951669990550727,107.7783779000165,None,C:\Users\Employee\Google Drive\UP\MyResearch\TaskProgramming\AB_pic\resources\snowshovel.jpg,C:\Users\Employee\Google Drive\UP\MyResearch\TaskProgramming\AB_pic\resources\footballhelmet.jpg,108.1616812000284,None,108.1616812000284,None,left,0.6460021000821143,108.1616812000284,None,108.8283288400271,None,None,108.8283288400271,None,,,001,2021_Mar_15_1408,AB_pic,2020.2.10,60.00621663549489,
AB,lag5,5,5,10,0.05,0.2,0,19,19,33,eiffeltower.jpg,moon.jpg,chefshat.jpg,statue.jpg,bench01.jpg,showerhead01.jpg,spicerack.jpg,jeans01.jpg,snowshovel.jpg,doghouse.jpg,pig.jpg,sink.jpg,dandelion.jpg,banjo.jpg,birdnest.jpg,eyepatch.jpg,treadmill.jpg,12,108.8449655000586,None,108.8449655000586,None,108.8449655000586,None,False,C:\Users\Employee\Google Drive\UP\MyResearch\TaskProgramming\AB_pic\resources\treadmill.jpg,C:\Users\Employee\Google Drive\UP\MyResearch\TaskProgramming\AB_pic\resources\doghouse.jpg,112.11142940004356,None,112.11142940004356,None,left,0.5523229000391439,112.11142940004356,None,C:\Users\Employee\Google Drive\UP\MyResearch\TaskProgramming\AB_pic\resources\bench01.jpg,C:\Users\Employee\Google Drive\UP\MyResearch\TaskProgramming\AB_pic\resources\eyepatch.jpg,112.71140080003534,None,112.71140080003534,None,right,1.6082755000097677,112.71140080003534,None,114.34419483999955,None,None,114.34419483999955,None,,,001,2021_Mar_15_1408,AB_pic,2020.2.10,60.00621663549489,
AB,lag2,2,5,7,0.05,0.2,0,20,20,49,snowshovel.jpg,statue.jpg,jeans01.jpg,noparkingsign.jpg,musicsheet.jpg,safe.jpg,eiffeltower.jpg,spicerack.jpg,doghouse.jpg,mailbox02.jpg,birdnest.jpg,showerhead01.jpg,eyepatch.jpg,church.jpg,trampoline.jpg,pig.jpg,chefshat.jpg,9,114.36084940005094,None,114.36084940005094,None,114.36084940005094,None,False,C:\Users\Employee\Google Drive\UP\MyResearch\TaskProgramming\AB_pic\resources\eiffeltower.jpg,C:\Users\Employee\Google Drive\UP\MyResearch\TaskProgramming\AB_pic\resources\chefshat.jpg,116.89445150003303,None,116.89445150003303,None,left,0.44132900005206466,116.89445150003303,None,C:\Users\Employee\Google Drive\UP\MyResearch\TaskProgramming\AB_pic\resources\musicsheet.jpg,C:\Users\Employee\Google Drive\UP\MyResearch\TaskProgramming\AB_pic\resources\pig.jpg,117.37774939998053,None,117.37774939998053,None,right,0.32600659993477166,117.37774939998053,None,117.72776434005937,None,None,117.72776434005937,None,,,001,2021_Mar_15_1408,AB_pic,2020.2.10,60.00621663549489,
AB,lag1,1,5,6,0.05,0.2,0,21,21,84,daddylonglegs.jpg,moon.jpg,banjo.jpg,magneticcompass.jpg,treadmill.jpg,swordfish.jpg,jeans01.jpg,doghouse.jpg,stool01.jpg,turnstile.jpg,cupcake.jpg,mummy.jpg,crab01.jpg,jellybean.jpg,spicerack.jpg,cobra.jpg,showerhead01.jpg,8,117.74439510004595,None,117.74439510004595,None,117.74439510004595,None,False,C:\Users\Employee\Google Drive\UP\MyResearch\TaskProgramming\AB_pic\resources\showerhead01.jpg,C:\Users\Employee\Google Drive\UP\MyResearch\TaskProgramming\AB_pic\resources\swordfish.jpg,120.01095030002762,None,120.01095030002762,None,right,1.092865000013262,120.01095030002762,None,C:\Users\Employee\Google Drive\UP\MyResearch\TaskProgramming\AB_pic\resources\cobra.jpg,C:\Users\Employee\Google Drive\UP\MyResearch\TaskProgramming\AB_pic\resources\treadmill.jpg,121.14417039998807,None,121.14417039998807,None,right,1.4077461999841034,121.14417039998807,None,122.57700604008278,None,None,122.57700604008278,None,,,001,2021_Mar_15_1408,AB_pic,2020.2.10,60.00621663549489,
AB,lag2,2,3,5,0.05,0.2,0,22,22,57,musicsheet.jpg,chefshat.jpg,swordfish.jpg,statue.jpg,birdnest.jpg,jellyfish.jpg,doghouse.jpg,bench01.jpg,christmaslights.jpg,trampoline.jpg,treadmill.jpg,cobra.jpg,showerhead01.jpg,daddylonglegs.jpg,banjo.jpg,jellybean.jpg,stool01.jpg,7,122.59363840008155,None,122.59363840008155,None,122.59363840008155,None,True,C:\Users\Employee\Google Drive\UP\MyResearch\TaskProgramming\AB_pic\resources\stool01.jpg,C:\Users\Employee\Google Drive\UP\MyResearch\TaskProgramming\AB_pic\resources\birdnest.jpg,124.5939446000848,None,124.5939446000848,None,left,1.5817990000359714,124.5939446000848,None,C:\Users\Employee\Google Drive\UP\MyResearch\TaskProgramming\AB_pic\resources\jellybean.jpg,C:\Users\Employee\Google Drive\UP\MyResearch\TaskProgramming\AB_pic\resources\swordfish.jpg,126.21007710008416,None,126.21007710008416,None,left,0.813669899944216,126.21007710008416,None,127.04336424003122,None,None,127.04336424003122,None,,,001,2021_Mar_15_1408,AB_pic,2020.2.10,60.00621663549489,
AB,lag7,7,5,12,0.05,0.2,0,23,23,30,stool01.jpg,musicsheet.jpg,mailbox02.jpg,spicerack.jpg,jellyfish.jpg,mummy.jpg,crab01.jpg,sink.jpg,fishingrod.jpg,banjo.jpg,noparkingsign.jpg,christmaslights.jpg,cobra.jpg,snowshovel.jpg,jeans01.jpg,safe.jpg,jellybean.jpg,,127.06001230003312,None,127.06001230003312,None,127.06001230003312,None,True,C:\Users\Employee\Google Drive\UP\MyResearch\TaskProgramming\AB_pic\resources\jellybean.jpg,C:\Users\Employee\Google Drive\UP\MyResearch\TaskProgramming\AB_pic\resources\christmaslights.jpg,130.82688680000138,None,130.82688680000138,None,right,1.5570031999377534,130.82688680000138,None,C:\Users\Employee\Google Drive\UP\MyResearch\TaskProgramming\AB_pic\resources\jellyfish.jpg,C:\Users\Employee\Google Drive\UP\MyResearch\TaskProgramming\AB_pic\resources\safe.jpg,132.42635830002837,None,132.42635830002837,None,right,0.4774961000075564,132.42635830002837,None,132.92634023999562,None,None,132.92634023999562,None,,,001,2021_Mar_15_1408,AB_pic,2020.2.10,60.00621663549489,
AB,lag6,6,3,9,0.05,0.2,0,24,24,139,footballhelmet.jpg,noparkingsign.jpg,leafblower01.jpg,jellyfish.jpg,moon.jpg,turnstile.jpg,jeans01.jpg,treadmill.jpg,cupcake.jpg,bench01.jpg,dandelion.jpg,statue.jpg,crab01.jpg,safe.jpg,swordfish.jpg,mailbox02.jpg,doghouse.jpg,11,132.95963110006414,None,132.95963110006414,None,132.95963110006414,None,True,C:\Users\Employee\Google Drive\UP\MyResearch\TaskProgramming\AB_pic\resources\doghouse.jpg,C:\Users\Employee\Google Drive\UP\MyResearch\TaskProgramming\AB_pic\resources\cupcake.jpg,135.95986459997948,None,135.95986459997948,None,right,1.088244799990207,135.95986459997948,None,C:\Users\Employee\Google Drive\UP\MyResearch\TaskProgramming\AB_pic\resources\mailbox02.jpg,C:\Users\Employee\Google Drive\UP\MyResearch\TaskProgramming\AB_pic\resources\leafblower01.jpg,137.0931362999836,None,137.0931362999836,None,left,0.6506503999698907,137.0931362999836,None,137.77602284000022,None,None,137.77602284000022,None,,,001,2021_Mar_15_1408,AB_pic,2020.2.10,60.00621663549489,
AB,lag4,4,3,7,0.05,0.2,0,25,25,112,pig.jpg,sink.jpg,doghouse.jpg,cupcake.jpg,crab01.jpg,christmaslights.jpg,footballhelmet.jpg,cobra.jpg,dandelion.jpg,eiffeltower.jpg,showerhead01.jpg,church.jpg,birdnest.jpg,leafblower01.jpg,mailbox02.jpg,bench01.jpg,banjo.jpg,9,137.80975550005678,None,137.80975550005678,None,137.80975550005678,None,True,C:\Users\Employee\Google Drive\UP\MyResearch\TaskProgramming\AB_pic\resources\footballhelmet.jpg,C:\Users\Employee\Google Drive\UP\MyResearch\TaskProgramming\AB_pic\resources\banjo.jpg,140.30960390006658,None,140.30960390006658,None,left,0.5462018999969587,140.30960390006658,None,C:\Users\Employee\Google Drive\UP\MyResearch\TaskProgramming\AB_pic\resources\bench01.jpg,C:\Users\Employee\Google Drive\UP\MyResearch\TaskProgramming\AB_pic\resources\doghouse.jpg,140.89288210007362,None,140.89288210007362,None,left,0.690894200000912,140.89288210007362,None,141.6090945400647,None,None,141.6090945400647,None,,,001,2021_Mar_15_1408,AB_pic,2020.2.10,60.00621663549489,
AB,lag7,7,5,12,0.05,0.2,0,26,26,69,musicsheet.jpg,eyepatch.jpg,treadmill.jpg,safe.jpg,noparkingsign.jpg,mummy.jpg,bowlingball.jpg,footballhelmet.jpg,magneticcompass.jpg,birdnest.jpg,eiffeltower.jpg,statue.jpg,jellybean.jpg,spicerack.jpg,pig.jpg,trampoline.jpg,cupcake.jpg,,141.64283620007336,None,141.64283620007336,None,141.64283620007336,None,False,C:\Users\Employee\Google Drive\UP\MyResearch\TaskProgramming\AB_pic\resources\statue.jpg,C:\Users\Employee\Google Drive\UP\MyResearch\TaskProgramming\AB_pic\resources\cupcake.jpg,145.4093017000705,None,145.4093017000705,None,right,0.7025362000567839,145.4093017000705,None,C:\Users\Employee\Google Drive\UP\MyResearch\TaskProgramming\AB_pic\resources\trampoline.jpg,C:\Users\Employee\Google Drive\UP\MyResearch\TaskProgramming\AB_pic\resources\noparkingsign.jpg,146.1591967000859,None,146.1591967000859,None,right,0.48070149996783584,146.1591967000859,None,146.6587567399838,None,None,146.6587567399838,None,,,001,2021_Mar_15_1408,AB_pic,2020.2.10,60.00621663549489,
AB,lag5,5,4,9,0.05,0.2,0,27,27,134,birdnest.jpg,moon.jpg,dandelion.jpg,footballhelmet.jpg,leafblower01.jpg,cobra.jpg,eyepatch.jpg,jeans01.jpg,mailbox02.jpg,bench01.jpg,doghouse.jpg,church.jpg,jellyfish.jpg,pig.jpg,swordfish.jpg,sink.jpg,jellybean.jpg,11,146.69207099999767,None,146.69207099999767,None,146.69207099999767,None,False,C:\Users\Employee\Google Drive\UP\MyResearch\TaskProgramming\AB_pic\resources\mailbox02.jpg,C:\Users\Employee\Google Drive\UP\MyResearch\TaskProgramming\AB_pic\resources\jellybean.jpg,149.69235310005024,None,149.69235310005024,None,right,0.4435420000227168,149.69235310005024,None,C:\Users\Employee\Google Drive\UP\MyResearch\TaskProgramming\AB_pic\resources\sink.jpg,C:\Users\Employee\Google Drive\UP\MyResearch\TaskProgramming\AB_pic\resources\footballhelmet.jpg,150.17562009999529,None,150.17562009999529,None,right,0.4003460999811068,150.17562009999529,None,150.5922638400807,None,None,150.5922638400807,None,,,001,2021_Mar_15_1408,AB_pic,2020.2.10,60.00621663549489,
AB,lag1,1,5,6,0.05,0.2,0,28,28,12,cupcake.jpg,snowshovel.jpg,bowlingball.jpg,statue.jpg,spicerack.jpg,mummy.jpg,eyepatch.jpg,musicsheet.jpg,daddylonglegs.jpg,jellybean.jpg,banjo.jpg,stool01.jpg,pig.jpg,crab01.jpg,christmaslights.jpg,sink.jpg,cobra.jpg,8,150.62558230001014,None,150.62558230001014,None,150.62558230001014,None,True,C:\Users\Employee\Google Drive\UP\MyResearch\TaskProgramming\AB_pic\resources\cobra.jpg,C:\Users\Employee\Google Drive\UP\MyResearch\TaskProgramming\AB_pic\resources\mummy.jpg,152.89215359999798,None,152.89215359999798,None,left,2.515652299975045,152.89215359999798,None,C:\Users\Employee\Google Drive\UP\MyResearch\TaskProgramming\AB_pic\resources\sink.jpg,C:\Users\Employee\Google Drive\UP\MyResearch\TaskProgramming\AB_pic\resources\spicerack.jpg,155.44151660008356,None,155.44151660008356,None,left,0.550240800017491,155.44151660008356,None,156.00816503999522,None,None,156.00816503999522,None,,,001,2021_Mar_15_1408,AB_pic,2020.2.10,60.00621663549489,
AB,lag2,2,4,6,0.05,0.2,0,29,29,22,snowshovel.jpg,swordfish.jpg,noparkingsign.jpg,jellyfish.jpg,treadmill.jpg,showerhead01.jpg,cupcake.jpg,banjo.jpg,dandelion.jpg,birdnest.jpg,footballhelmet.jpg,bench01.jpg,leafblower01.jpg,mummy.jpg,eiffeltower.jpg,eyepatch.jpg,statue.jpg,8,156.02479820000008,None,156.02479820000008,None,156.02479820000008,None,True,C:\Users\Employee\Google Drive\UP\MyResearch\TaskProgramming\AB_pic\resources\statue.jpg,C:\Users\Employee\Google Drive\UP\MyResearch\TaskProgramming\AB_pic\resources\showerhead01.jpg,158.29175590001978,None,158.29175590001978,None,right,0.572105799918063,158.29175590001978,None,C:\Users\Employee\Google Drive\UP\MyResearch\TaskProgramming\AB_pic\resources\jellyfish.jpg,C:\Users\Employee\Google Drive\UP\MyResearch\TaskProgramming\AB_pic\resources\eyepatch.jpg,158.90837150008883,None,158.90837150008883,None,right,0.3474098000442609,158.90837150008883,None,159.2750524400617,None,None,159.2750524400617,None,,,001,2021_Mar_15_1408,AB_pic,2020.2.10,60.00621663549489,
AB,lag4,4,3,7,0.05,0.2,0,30,30,99,magneticcompass.jpg,eyepatch.jpg,jeans01.jpg,turnstile.jpg,fishingrod.jpg,showerhead01.jpg,musicsheet.jpg,pig.jpg,swordfish.jpg,daddylonglegs.jpg,stool01.jpg,mailbox02.jpg,jellyfish.jpg,cobra.jpg,bench01.jpg,jellybean.jpg,crab01.jpg,9,159.29167760000564,None,159.29167760000564,None,159.29167760000564,None,False,C:\Users\Employee\Google Drive\UP\MyResearch\TaskProgramming\AB_pic\resources\musicsheet.jpg,C:\Users\Employee\Google Drive\UP\MyResearch\TaskProgramming\AB_pic\resources\crab01.jpg,161.79152319999412,None,161.79152319999412,None,left,0.4563532000174746,161.79152319999412,None,C:\Users\Employee\Google Drive\UP\MyResearch\TaskProgramming\AB_pic\resources\jeans01.jpg,C:\Users\Employee\Google Drive\UP\MyResearch\TaskProgramming\AB_pic\resources\jellybean.jpg,162.29148310003802,None,162.29148310003802,None,right,0.412418800056912,162.29148310003802,None,162.72480323998025,None,None,162.72480323998025,None,,,001,2021_Mar_15_1408,AB_pic,2020.2.10,60.00621663549489,
AB,lag2,2,5,7,0.05,0.2,0,31,31,153,treadmill.jpg,cobra.jpg,cruiseship.jpg,mummy.jpg,musicsheet.jpg,fishingrod.jpg,dandelion.jpg,birdnest.jpg,safe.jpg,leafblower01.jpg,footballhelmet.jpg,showerhead01.jpg,noparkingsign.jpg,jeans01.jpg,church.jpg,cupcake.jpg,eiffeltower.jpg,9,162.74145159998443,None,162.74145159998443,None,162.74145159998443,None,True,C:\Users\Employee\Google Drive\UP\MyResearch\TaskProgramming\AB_pic\resources\eiffeltower.jpg,C:\Users\Employee\Google Drive\UP\MyResearch\TaskProgramming\AB_pic\resources\dandelion.jpg,165.24134359997697,None,165.24134359997697,None,right,0.550404499983415,165.24134359997697,None,C:\Users\Employee\Google Drive\UP\MyResearch\TaskProgramming\AB_pic\resources\cupcake.jpg,C:\Users\Employee\Google Drive\UP\MyResearch\TaskProgramming\AB_pic\resources\musicsheet.jpg,165.8246162000578,None,165.8246162000578,None,left,0.3751449000556022,165.8246162000578,None,166.22458264004672,None,None,166.22458264004672,None,,,001,2021_Mar_15_1408,AB_pic,2020.2.10,60.00621663549489,
AB,lag2,2,3,5,0.05,0.2,0,32,32,14,musicsheet.jpg,trampoline.jpg,stool01.jpg,fishingrod.jpg,leafblower01.jpg,noparkingsign.jpg,turnstile.jpg,sink.jpg,daddylonglegs.jpg,cruiseship.jpg,pig.jpg,birdnest.jpg,cobra.jpg,christmaslights.jpg,chefshat.jpg,banjo.jpg,moon.jpg,7,166.25789470004383,None,166.25789470004383,None,166.25789470004383,None,False,C:\Users\Employee\Google Drive\UP\MyResearch\TaskProgramming\AB_pic\resources\moon.jpg,C:\Users\Employee\Google Drive\UP\MyResearch\TaskProgramming\AB_pic\resources\leafblower01.jpg,168.25733709998894,None,168.25733709998894,None,right,0.40653589996509254,168.25733709998894,None,C:\Users\Employee\Google Drive\UP\MyResearch\TaskProgramming\AB_pic\resources\banjo.jpg,C:\Users\Employee\Google Drive\UP\MyResearch\TaskProgramming\AB_pic\resources\stool01.jpg,168.70775970001705,None,168.70775970001705,None,left,0.33205600001383573,168.70775970001705,None,169.05777234007837,None,None,169.05777234007837,None,,,001,2021_Mar_15_1408,AB_pic,2020.2.10,60.00621663549489,
AB,lag7,7,3,10,0.05,0.2,0,33,33,64,doghouse.jpg,mailbox02.jpg,magneticcompass.jpg,jellybean.jpg,turnstile.jpg,christmaslights.jpg,dandelion.jpg,bowlingball.jpg,fishingrod.jpg,sink.jpg,daddylonglegs.jpg,noparkingsign.jpg,cobra.jpg,jeans01.jpg,safe.jpg,bench01.jpg,crab01.jpg,12,169.07438890007325,None,169.07438890007325,None,169.07438890007325,None,False,C:\Users\Employee\Google Drive\UP\MyResearch\TaskProgramming\AB_pic\resources\sink.jpg,C:\Users\Employee\Google Drive\UP\MyResearch\TaskProgramming\AB_pic\resources\crab01.jpg,172.34084830002394,None,172.34084830002394,None,left,1.5549344999017194,172.34084830002394,None,C:\Users\Employee\Google Drive\UP\MyResearch\TaskProgramming\AB_pic\resources\magneticcompass.jpg,C:\Users\Employee\Google Drive\UP\MyResearch\TaskProgramming\AB_pic\resources\bench01.jpg,173.9407367000822,None,173.9407367000822,None,right,0.41103740001562983,173.9407367000822,None,174.37362523999764,None,None,174.37362523999764,None,,,001,2021_Mar_15_1408,AB_pic,2020.2.10,60.00621663549489,
AB,lag3,3,3,6,0.05,0.2,0,34,34,105,snowshovel.jpg,jeans01.jpg,mailbox02.jpg,cupcake.jpg,treadmill.jpg,magneticcompass.jpg,moon.jpg,doghouse.jpg,bench01.jpg,crab01.jpg,church.jpg,jellyfish.jpg,mummy.jpg,musicsheet.jpg,dandelion.jpg,eiffeltower.jpg,leafblower01.jpg,8,174.39028589997906,None,174.39028589997906,None,174.39028589997906,None,True,C:\Users\Employee\Google Drive\UP\MyResearch\TaskProgramming\AB_pic\resources\magneticcompass.jpg,C:\Users\Employee\Google Drive\UP\MyResearch\TaskProgramming\AB_pic\resources\leafblower01.jpg,176.6572239000816,None,176.6572239000816,None,left,0.7665627000387758,176.6572239000816,None,C:\Users\Employee\Google Drive\UP\MyResearch\TaskProgramming\AB_pic\resources\mailbox02.jpg,C:\Users\Employee\Google Drive\UP\MyResearch\TaskProgramming\AB_pic\resources\eiffeltower.jpg,177.4571769000031,None,177.4571769000031,None,right,1.0065879999892786,177.4571769000031,None,178.49002544005634,None,None,178.49002544005634,None,,,001,2021_Mar_15_1408,AB_pic,2020.2.10,60.00621663549489,
AB,lag1,1,4,5,0.05,0.2,0,35,35,10,statue.jpg,chefshat.jpg,cupcake.jpg,safe.jpg,fishingrod.jpg,daddylonglegs.jpg,musicsheet.jpg,doghouse.jpg,jellyfish.jpg,crab01.jpg,leafblower01.jpg,birdnest.jpg,jellybean.jpg,turnstile.jpg,pig.jpg,mummy.jpg,moon.jpg,7,178.52377510000952,None,178.52377510000952,None,178.52377510000952,None,False,C:\Users\Employee\Google Drive\UP\MyResearch\TaskProgramming\AB_pic\resources\fishingrod.jpg,C:\Users\Employee\Google Drive\UP\MyResearch\TaskProgramming\AB_pic\resources\moon.jpg,180.523639800027,None,180.523639800027,None,left,0.8042340000392869,180.523639800027,None,C:\Users\Employee\Google Drive\UP\MyResearch\TaskProgramming\AB_pic\resources\safe.jpg,C:\Users\Employee\Google Drive\UP\MyResearch\TaskProgramming\AB_pic\resources\mummy.jpg,181.37314500007778,None,181.37314500007778,None,right,1.0026408999692649,181.37314500007778,None,182.4064287400688,None,None,182.4064287400688,None,,,001,2021_Mar_15_1408,AB_pic,2020.2.10,60.00621663549489,
AB,lag7,7,4,11,0.05,0.2,0,36,36,123,jellyfish.jpg,turnstile.jpg,showerhead01.jpg,treadmill.jpg,doghouse.jpg,snowshovel.jpg,mailbox02.jpg,pig.jpg,magneticcompass.jpg,eyepatch.jpg,church.jpg,bowlingball.jpg,footballhelmet.jpg,daddylonglegs.jpg,leafblower01.jpg,jellybean.jpg,bench01.jpg,13,182.42307939997409,None,182.42307939997409,None,182.42307939997409,None,False,C:\Users\Employee\Google Drive\UP\MyResearch\TaskProgramming\AB_pic\resources\church.jpg,C:\Users\Employee\Google Drive\UP\MyResearch\TaskProgramming\AB_pic\resources\bench01.jpg,185.95661750005092,None,185.95661750005092,None,left,0.9952143999980763,185.95661750005092,None,C:\Users\Employee\Google Drive\UP\MyResearch\TaskProgramming\AB_pic\resources\treadmill.jpg,C:\Users\Employee\Google Drive\UP\MyResearch\TaskProgramming\AB_pic\resources\jellybean.jpg,186.98990649997722,None,186.98990649997722,None,right,0.36989370000083,186.98990649997722,None,187.38944344007177,None,None,187.38944344007177,None,,,001,2021_Mar_15_1408,AB_pic,2020.2.10,60.00621663549489,
AB,lag2,2,3,5,0.05,0.2,0,37,37,154,stool01.jpg,cruiseship.jpg,cupcake.jpg,fishingrod.jpg,christmaslights.jpg,bowlingball.jpg,church.jpg,mailbox02.jpg,mummy.jpg,dandelion.jpg,daddylonglegs.jpg,magneticcompass.jpg,moon.jpg,sink.jpg,spicerack.jpg,trampoline.jpg,noparkingsign.jpg,7,187.4060857000295,None,187.4060857000295,None,187.4060857000295,None,True,C:\Users\Employee\Google Drive\UP\MyResearch\TaskProgramming\AB_pic\resources\christmaslights.jpg,C:\Users\Employee\Google Drive\UP\MyResearch\TaskProgramming\AB_pic\resources\noparkingsign.jpg,189.4397212000331,None,189.4397212000331,None,right,0.6240734000457451,189.4397212000331,None,C:\Users\Employee\Google Drive\UP\MyResearch\TaskProgramming\AB_pic\resources\trampoline.jpg,C:\Users\Employee\Google Drive\UP\MyResearch\TaskProgramming\AB_pic\resources\cupcake.jpg,190.10636640002485,None,190.10636640002485,None,left,0.7335659000091255,190.10636640002485,None,190.8559119400452,None,None,190.8559119400452,None,,,001,2021_Mar_15_1408,AB_pic,2020.2.10,60.00621663549489,
AB,lag2,2,4,6,0.05,0.2,0,38,38,87,banjo.jpg,showerhead01.jpg,swordfish.jpg,daddylonglegs.jpg,fishingrod.jpg,dandelion.jpg,eiffeltower.jpg,moon.jpg,bowlingball.jpg,church.jpg,doghouse.jpg,magneticcompass.jpg,crab01.jpg,bench01.jpg,musicsheet.jpg,pig.jpg,mummy.jpg,8,190.8891974000726,None,190.8891974000726,None,190.8891974000726,None,True,C:\Users\Employee\Google Drive\UP\MyResearch\TaskProgramming\AB_pic\resources\mummy.jpg,C:\Users\Employee\Google Drive\UP\MyResearch\TaskProgramming\AB_pic\resources\dandelion.jpg,193.1561600000132,None,193.1561600000132,None,right,0.5076542000751942,193.1561600000132,None,C:\Users\Employee\Google Drive\UP\MyResearch\TaskProgramming\AB_pic\resources\daddylonglegs.jpg,C:\Users\Employee\Google Drive\UP\MyResearch\TaskProgramming\AB_pic\resources\pig.jpg,193.70614700007718,None,193.70614700007718,None,right,0.38969610002823174,193.70614700007718,None,194.1227979399846,None,None,194.1227979399846,None,,,001,2021_Mar_15_1408,AB_pic,2020.2.10,60.00621663549489,
AB,lag2,2,4,6,0.05,0.2,0,39,39,79,birdnest.jpg,noparkingsign.jpg,christmaslights.jpg,eiffeltower.jpg,leafblower01.jpg,crab01.jpg,footballhelmet.jpg,moon.jpg,pig.jpg,bowlingball.jpg,eyepatch.jpg,jeans01.jpg,jellybean.jpg,chefshat.jpg,daddylonglegs.jpg,musicsheet.jpg,spicerack.jpg,8,194.139414699981,None,194.139414699981,None,194.139414699981,None,True,C:\Users\Employee\Google Drive\UP\MyResearch\TaskProgramming\AB_pic\resources\spicerack.jpg,C:\Users\Employee\Google Drive\UP\MyResearch\TaskProgramming\AB_pic\resources\crab01.jpg,196.40596120001283,None,196.40596120001283,None,right,2.442004100070335,196.40596120001283,None,C:\Users\Employee\Google Drive\UP\MyResearch\TaskProgramming\AB_pic\resources\musicsheet.jpg,C:\Users\Employee\Google Drive\UP\MyResearch\TaskProgramming\AB_pic\resources\eiffeltower.jpg,198.88868910004385,None,198.88868910004385,None,left,1.3351644000504166,198.88868910004385,None,200.25529864005512,None,None,200.25529864005512,None,,,001,2021_Mar_15_1408,AB_pic,2020.2.10,60.00621663549489,
AB,lag3,3,3,6,0.05,0.2,0,40,40,140,doghouse.jpg,leafblower01.jpg,turnstile.jpg,noparkingsign.jpg,jeans01.jpg,bench01.jpg,magneticcompass.jpg,safe.jpg,cupcake.jpg,eyepatch.jpg,pig.jpg,eiffeltower.jpg,statue.jpg,chefshat.jpg,bowlingball.jpg,fishingrod.jpg,footballhelmet.jpg,8,200.2886659000069,None,200.2886659000069,None,200.2886659000069,None,True,C:\Users\Employee\Google Drive\UP\MyResearch\TaskProgramming\AB_pic\resources\footballhelmet.jpg,C:\Users\Employee\Google Drive\UP\MyResearch\TaskProgramming\AB_pic\resources\bench01.jpg,202.5556135000661,None,202.5556135000661,None,right,0.6363048000494018,202.5556135000661,None,C:\Users\Employee\Google Drive\UP\MyResearch\TaskProgramming\AB_pic\resources\fishingrod.jpg,C:\Users\Employee\Google Drive\UP\MyResearch\TaskProgramming\AB_pic\resources\turnstile.jpg,203.2388489000732,None,203.2388489000732,None,left,0.47291420004330575,203.2388489000732,None,203.73883314005798,None,None,203.73883314005798,None,,,001,2021_Mar_15_1408,AB_pic,2020.2.10,60.00621663549489,
AB,lag6,6,5,11,0.05,0.2,0,41,41,148,eyepatch.jpg,chefshat.jpg,banjo.jpg,sink.jpg,treadmill.jpg,stool01.jpg,crab01.jpg,leafblower01.jpg,doghouse.jpg,mummy.jpg,mailbox02.jpg,footballhelmet.jpg,daddylonglegs.jpg,safe.jpg,church.jpg,fishingrod.jpg,eiffeltower.jpg,13,203.772158900043,None,203.772158900043,None,203.772158900043,None,False,C:\Users\Employee\Google Drive\UP\MyResearch\TaskProgramming\AB_pic\resources\eiffeltower.jpg,C:\Users\Employee\Google Drive\UP\MyResearch\TaskProgramming\AB_pic\resources\mailbox02.jpg,207.2719105000142,None,207.2719105000142,None,right,2.1199984999839216,207.2719105000142,None,C:\Users\Employee\Google Drive\UP\MyResearch\TaskProgramming\AB_pic\resources\fishingrod.jpg,C:\Users\Employee\Google Drive\UP\MyResearch\TaskProgramming\AB_pic\resources\treadmill.jpg,209.4379634000361,None,209.4379634000361,None,left,0.5139184000436217,209.4379634000361,None,209.97132514003897,None,None,209.97132514003897,None,,,001,2021_Mar_15_1408,AB_pic,2020.2.10,60.00621663549489,
AB,lag1,1,5,6,0.05,0.2,0,42,42,83,eyepatch.jpg,magneticcompass.jpg,footballhelmet.jpg,doghouse.jpg,mailbox02.jpg,bowlingball.jpg,cupcake.jpg,safe.jpg,bench01.jpg,daddylonglegs.jpg,moon.jpg,showerhead01.jpg,noparkingsign.jpg,cobra.jpg,cruiseship.jpg,musicsheet.jpg,church.jpg,8,209.9879594000522,None,209.9879594000522,None,209.9879594000522,None,False,C:\Users\Employee\Google Drive\UP\MyResearch\TaskProgramming\AB_pic\resources\bowlingball.jpg,C:\Users\Employee\Google Drive\UP\MyResearch\TaskProgramming\AB_pic\resources\church.jpg,212.25490190007258,None,212.25490190007258,None,left,0.952936299960129,212.25490190007258,None,C:\Users\Employee\Google Drive\UP\MyResearch\TaskProgramming\AB_pic\resources\mailbox02.jpg,C:\Users\Employee\Google Drive\UP\MyResearch\TaskProgramming\AB_pic\resources\musicsheet.jpg,213.25484120007604,None,213.25484120007604,None,right,1.208987700054422,213.25484120007604,None,214.4877086399938,None,None,214.4877086399938,None,,,001,2021_Mar_15_1408,AB_pic,2020.2.10,60.00621663549489,
AB,lag6,6,4,10,0.05,0.2,0,43,43,51,safe.jpg,trampoline.jpg,turnstile.jpg,chefshat.jpg,stool01.jpg,jellybean.jpg,cupcake.jpg,crab01.jpg,musicsheet.jpg,showerhead01.jpg,fishingrod.jpg,banjo.jpg,eyepatch.jpg,swordfish.jpg,birdnest.jpg,jellyfish.jpg,magneticcompass.jpg,12,214.5043282000115,None,214.5043282000115,None,214.5043282000115,None,True,C:\Users\Employee\Google Drive\UP\MyResearch\TaskProgramming\AB_pic\resources\showerhead01.jpg,C:\Users\Employee\Google Drive\UP\MyResearch\TaskProgramming\AB_pic\resources\magneticcompass.jpg,217.7712319000857,None,217.7712319000857,None,left,0.7246230999007821,217.7712319000857,None,C:\Users\Employee\Google Drive\UP\MyResearch\TaskProgramming\AB_pic\resources\chefshat.jpg,C:\Users\Employee\Google Drive\UP\MyResearch\TaskProgramming\AB_pic\resources\jellyfish.jpg,218.53783649997786,None,218.53783649997786,None,right,0.46198200003709644,218.53783649997786,None,219.0211787400185,None,None,219.0211787400185,None,,,001,2021_Mar_15_1408,AB_pic,2020.2.10,60.00621663549489,
AB,lag7,7,5,12,0.05,0.2,0,44,44,118,doghouse.jpg,footballhelmet.jpg,swordfish.jpg,stool01.jpg,turnstile.jpg,statue.jpg,birdnest.jpg,jellybean.jpg,mailbox02.jpg,christmaslights.jpg,cupcake.jpg,mummy.jpg,treadmill.jpg,moon.jpg,jeans01.jpg,showerhead01.jpg,trampoline.jpg,,219.05447059997823,None,219.05447059997823,None,219.05447059997823,None,False,C:\Users\Employee\Google Drive\UP\MyResearch\TaskProgramming\AB_pic\resources\trampoline.jpg,C:\Users\Employee\Google Drive\UP\MyResearch\TaskProgramming\AB_pic\resources\mummy.jpg,222.82091530004982,None,222.82091530004982,None,left,0.882902399986051,222.82091530004982,None,C:\Users\Employee\Google Drive\UP\MyResearch\TaskProgramming\AB_pic\resources\showerhead01.jpg,C:\Users\Employee\Google Drive\UP\MyResearch\TaskProgramming\AB_pic\resources\turnstile.jpg,223.73750799999107,None,223.73750799999107,None,left,0.5103246999206021,223.73750799999107,None,224.27083973999834,None,None,224.27083973999834,None,,,001,2021_Mar_15_1408,AB_pic,2020.2.10,60.00621663549489,
AB,lag1,1,4,5,0.05,0.2,0,45,45,144,fishingrod.jpg,jellyfish.jpg,cobra.jpg,moon.jpg,crab01.jpg,turnstile.jpg,footballhelmet.jpg,cupcake.jpg,christmaslights.jpg,jeans01.jpg,jellybean.jpg,statue.jpg,sink.jpg,spicerack.jpg,swordfish.jpg,doghouse.jpg,snowshovel.jpg,7,224.28746630006935,None,224.28746630006935,None,224.28746630006935,None,True,C:\Users\Employee\Google Drive\UP\MyResearch\TaskProgramming\AB_pic\resources\crab01.jpg,C:\Users\Employee\Google Drive\UP\MyResearch\TaskProgramming\AB_pic\resources\snowshovel.jpg,226.2868962000357,None,226.2868962000357,None,left,0.5850350999971852,226.2868962000357,None,C:\Users\Employee\Google Drive\UP\MyResearch\TaskProgramming\AB_pic\resources\doghouse.jpg,C:\Users\Employee\Google Drive\UP\MyResearch\TaskProgramming\AB_pic\resources\moon.jpg,226.90398489998188,None,226.90398489998188,None,left,0.6558108000317588,226.90398489998188,None,227.58682584000053,None,None,227.58682584000053,None,,,001,2021_Mar_15_1408,AB_pic,2020.2.10,60.00621663549489,
AB,lag4,4,4,8,0.05,0.2,0,46,46,151,chefshat.jpg,turnstile.jpg,eiffeltower.jpg,magneticcompass.jpg,musicsheet.jpg,leafblower01.jpg,footballhelmet.jpg,church.jpg,bench01.jpg,spicerack.jpg,sink.jpg,jeans01.jpg,daddylonglegs.jpg,safe.jpg,fishingrod.jpg,statue.jpg,jellyfish.jpg,10,227.62057730008382,None,227.62057730008382,None,227.62057730008382,None,True,C:\Users\Employee\Google Drive\UP\MyResearch\TaskProgramming\AB_pic\resources\jellyfish.jpg,C:\Users\Employee\Google Drive\UP\MyResearch\TaskProgramming\AB_pic\resources\church.jpg,230.3870740000857,None,230.3870740000857,None,right,1.2528009000234306,230.3870740000857,None,C:\Users\Employee\Google Drive\UP\MyResearch\TaskProgramming\AB_pic\resources\statue.jpg,C:\Users\Employee\Google Drive\UP\MyResearch\TaskProgramming\AB_pic\resources\magneticcompass.jpg,231.6865619000746,None,231.6865619000746,None,left,0.657232099911198,231.6865619000746,None,232.36985254002502,None,None,232.36985254002502,None,,,001,2021_Mar_15_1408,AB_pic,2020.2.10,60.00621663549489,
AB,lag6,6,4,10,0.05,0.2,0,47,47,31,daddylonglegs.jpg,treadmill.jpg,eiffeltower.jpg,safe.jpg,swordfish.jpg,banjo.jpg,cruiseship.jpg,bench01.jpg,moon.jpg,cupcake.jpg,statue.jpg,jeans01.jpg,musicsheet.jpg,fishingrod.jpg,showerhead01.jpg,jellyfish.jpg,mummy.jpg,12,232.386503500049,None,232.386503500049,None,232.386503500049,None,False,C:\Users\Employee\Google Drive\UP\MyResearch\TaskProgramming\AB_pic\resources\mummy.jpg,C:\Users\Employee\Google Drive\UP\MyResearch\TaskProgramming\AB_pic\resources\cupcake.jpg,235.65339640004095,None,235.65339640004095,None,left,2.5384021000936627,235.65339640004095,None,C:\Users\Employee\Google Drive\UP\MyResearch\TaskProgramming\AB_pic\resources\safe.jpg,C:\Users\Employee\Google Drive\UP\MyResearch\TaskProgramming\AB_pic\resources\jellyfish.jpg,238.23614300007466,None,238.23614300007466,None,left,0.57178220001515,238.23614300007466,None,238.83611424005358,None,None,238.83611424005358,None,,,001,2021_Mar_15_1408,AB_pic,2020.2.10,60.00621663549489,
AB,lag7,7,3,10,0.05,0.2,0,48,48,44,banjo.jpg,cupcake.jpg,pig.jpg,cobra.jpg,leafblower01.jpg,crab01.jpg,eyepatch.jpg,spicerack.jpg,doghouse.jpg,eiffeltower.jpg,jeans01.jpg,stool01.jpg,mailbox02.jpg,treadmill.jpg,statue.jpg,bench01.jpg,church.jpg,12,238.86941530008335,None,238.86941530008335,None,238.86941530008335,None,False,C:\Users\Employee\Google Drive\UP\MyResearch\TaskProgramming\AB_pic\resources\eiffeltower.jpg,C:\Users\Employee\Google Drive\UP\MyResearch\TaskProgramming\AB_pic\resources\church.jpg,242.1363092000829,None,242.1363092000829,None,left,0.45548050000797957,242.1363092000829,None,C:\Users\Employee\Google Drive\UP\MyResearch\TaskProgramming\AB_pic\resources\pig.jpg,C:\Users\Employee\Google Drive\UP\MyResearch\TaskProgramming\AB_pic\resources\bench01.jpg,242.6362727000378,None,242.6362727000378,None,right,0.3636121000163257,242.6362727000378,None,243.01960864005378,None,None,243.01960864005378,None,,,001,2021_Mar_15_1408,AB_pic,2020.2.10,60.00621663549489,
AB,lag5,5,5,10,0.05,0.2,0,49,49,17,moon.jpg,eyepatch.jpg,magneticcompass.jpg,doghouse.jpg,trampoline.jpg,fishingrod.jpg,footballhelmet.jpg,turnstile.jpg,spicerack.jpg,daddylonglegs.jpg,birdnest.jpg,showerhead01.jpg,stool01.jpg,mummy.jpg,christmaslights.jpg,musicsheet.jpg,statue.jpg,12,243.03623389999848,None,243.03623389999848,None,243.03623389999848,None,True,C:\Users\Employee\Google Drive\UP\MyResearch\TaskProgramming\AB_pic\resources\daddylonglegs.jpg,C:\Users\Employee\Google Drive\UP\MyResearch\TaskProgramming\AB_pic\resources\statue.jpg,246.30271070008166,None,246.30271070008166,None,left,0.5690893999999389,246.30271070008166,None,C:\Users\Employee\Google Drive\UP\MyResearch\TaskProgramming\AB_pic\resources\trampoline.jpg,C:\Users\Employee\Google Drive\UP\MyResearch\TaskProgramming\AB_pic\resources\musicsheet.jpg,246.91931810008828,None,246.91931810008828,None,right,0.35256419994402677,246.91931810008828,None,247.30264624004485,None,None,247.30264624004485,None,,,001,2021_Mar_15_1408,AB_pic,2020.2.10,60.00621663549489,
AB,lag1,1,4,5,0.05,0.2,0,50,50,24,jellybean.jpg,daddylonglegs.jpg,noparkingsign.jpg,dandelion.jpg,spicerack.jpg,chefshat.jpg,sink.jpg,showerhead01.jpg,moon.jpg,christmaslights.jpg,crab01.jpg,church.jpg,eiffeltower.jpg,fishingrod.jpg,stool01.jpg,eyepatch.jpg,cruiseship.jpg,7,247.31886420003138,None,247.31886420003138,None,247.31886420003138,None,True,C:\Users\Employee\Google Drive\UP\MyResearch\TaskProgramming\AB_pic\resources\cruiseship.jpg,C:\Users\Employee\Google Drive\UP\MyResearch\TaskProgramming\AB_pic\resources\spicerack.jpg,249.3192018000409,None,249.3192018000409,None,right,0.8646060000173748,249.3192018000409,None,C:\Users\Employee\Google Drive\UP\MyResearch\TaskProgramming\AB_pic\resources\eyepatch.jpg,C:\Users\Employee\Google Drive\UP\MyResearch\TaskProgramming\AB_pic\resources\dandelion.jpg,250.21913490002044,None,250.21913490002044,None,left,0.3726454999996349,250.21913490002044,None,250.61866494006244,None,None,250.61866494006244,None,,,001,2021_Mar_15_1408,AB_pic,2020.2.10,60.00621663549489,
AB,lag5,5,3,8,0.05,0.2,0,51,51,1,jeans01.jpg,moon.jpg,fishingrod.jpg,trampoline.jpg,cobra.jpg,banjo.jpg,treadmill.jpg,showerhead01.jpg,cruiseship.jpg,bench01.jpg,mailbox02.jpg,pig.jpg,leafblower01.jpg,stool01.jpg,jellybean.jpg,turnstile.jpg,chefshat.jpg,10,250.6353136000689,None,250.6353136000689,None,250.6353136000689,None,True,C:\Users\Employee\Google Drive\UP\MyResearch\TaskProgramming\AB_pic\resources\showerhead01.jpg,C:\Users\Employee\Google Drive\UP\MyResearch\TaskProgramming\AB_pic\resources\chefshat.jpg,253.40224770002533,None,253.40224770002533,None,left,0.5895406000781804,253.40224770002533,None,C:\Users\Employee\Google Drive\UP\MyResearch\TaskProgramming\AB_pic\resources\fishingrod.jpg,C:\Users\Employee\Google Drive\UP\MyResearch\TaskProgramming\AB_pic\resources\turnstile.jpg,254.0355353000341,None,254.0355353000341,None,right,0.3644376000156626,254.0355353000341,None,254.41841544007184,None,None,254.41841544007184,None,,,001,2021_Mar_15_1408,AB_pic,2020.2.10,60.00621663549489,
AB,lag3,3,3,6,0.05,0.2,0,52,52,0,magneticcompass.jpg,leafblower01.jpg,swordfish.jpg,birdnest.jpg,spicerack.jpg,snowshovel.jpg,mummy.jpg,footballhelmet.jpg,stool01.jpg,turnstile.jpg,jellyfish.jpg,eiffeltower.jpg,fishingrod.jpg,bench01.jpg,cruiseship.jpg,dandelion.jpg,statue.jpg,8,254.4350663999794,None,254.4350663999794,None,254.4350663999794,None,True,C:\Users\Employee\Google Drive\UP\MyResearch\TaskProgramming\AB_pic\resources\snowshovel.jpg,C:\Users\Employee\Google Drive\UP\MyResearch\TaskProgramming\AB_pic\resources\statue.jpg,256.70209899998736,None,256.70209899998736,None,right,1.5936978999525309,256.70209899998736,None,C:\Users\Employee\Google Drive\UP\MyResearch\TaskProgramming\AB_pic\resources\dandelion.jpg,C:\Users\Employee\Google Drive\UP\MyResearch\TaskProgramming\AB_pic\resources\swordfish.jpg,258.334840000025,None,258.334840000025,None,left,0.48096230009105057,258.334840000025,None,258.83479894004995,None,None,258.83479894004995,None,,,001,2021_Mar_15_1408,AB_pic,2020.2.10,60.00621663549489,
AB,lag2,2,4,6,0.05,0.2,0,53,53,107,statue.jpg,doghouse.jpg,treadmill.jpg,jellybean.jpg,footballhelmet.jpg,moon.jpg,cobra.jpg,mailbox02.jpg,cupcake.jpg,christmaslights.jpg,daddylonglegs.jpg,turnstile.jpg,eyepatch.jpg,eiffeltower.jpg,bowlingball.jpg,leafblower01.jpg,birdnest.jpg,8,258.85144830006175,None,258.85144830006175,None,258.85144830006175,None,True,C:\Users\Employee\Google Drive\UP\MyResearch\TaskProgramming\AB_pic\resources\birdnest.jpg,C:\Users\Employee\Google Drive\UP\MyResearch\TaskProgramming\AB_pic\resources\moon.jpg,261.11840779997874,None,261.11840779997874,None,right,1.697569299954921,261.11840779997874,None,C:\Users\Employee\Google Drive\UP\MyResearch\TaskProgramming\AB_pic\resources\leafblower01.jpg,C:\Users\Employee\Google Drive\UP\MyResearch\TaskProgramming\AB_pic\resources\jellybean.jpg,262.85119940002915,None,262.85119940002915,None,left,0.4045939000789076,262.85119940002915,None,263.28450954001164,None,None,263.28450954001164,None,,,001,2021_Mar_15_1408,AB_pic,2020.2.10,60.00621663549489,
AB,lag5,5,3,8,0.05,0.2,0,54,54,53,sink.jpg,statue.jpg,eyepatch.jpg,jellyfish.jpg,swordfish.jpg,eiffeltower.jpg,jellybean.jpg,magneticcompass.jpg,chefshat.jpg,showerhead01.jpg,snowshovel.jpg,safe.jpg,jeans01.jpg,trampoline.jpg,moon.jpg,doghouse.jpg,musicsheet.jpg,10,263.30116070003714,None,263.30116070003714,None,263.30116070003714,None,False,C:\Users\Employee\Google Drive\UP\MyResearch\TaskProgramming\AB_pic\resources\musicsheet.jpg,C:\Users\Employee\Google Drive\UP\MyResearch\TaskProgramming\AB_pic\resources\magneticcompass.jpg,266.06814840005245,None,266.06814840005245,None,right,1.3478236000519246,266.06814840005245,None,C:\Users\Employee\Google Drive\UP\MyResearch\TaskProgramming\AB_pic\resources\doghouse.jpg,C:\Users\Employee\Google Drive\UP\MyResearch\TaskProgramming\AB_pic\resources\eyepatch.jpg,267.45090270007495,None,267.45090270007495,None,left,0.46088470006361604,267.45090270007495,None,267.934210340085,None,None,267.934210340085,None,,,001,2021_Mar_15_1408,AB_pic,2020.2.10,60.00621663549489,
AB,lag4,4,3,7,0.05,0.2,0,55,55,3,jellyfish.jpg,cruiseship.jpg,moon.jpg,daddylonglegs.jpg,mailbox02.jpg,footballhelmet.jpg,snowshovel.jpg,stool01.jpg,mummy.jpg,swordfish.jpg,birdnest.jpg,bench01.jpg,noparkingsign.jpg,leafblower01.jpg,church.jpg,statue.jpg,cupcake.jpg,9,267.950850800029,None,267.950850800029,None,267.950850800029,None,True,C:\Users\Employee\Google Drive\UP\MyResearch\TaskProgramming\AB_pic\resources\snowshovel.jpg,C:\Users\Employee\Google Drive\UP\MyResearch\TaskProgramming\AB_pic\resources\cupcake.jpg,270.4511572000338,None,270.4511572000338,None,left,0.6205753000685945,270.4511572000338,None,C:\Users\Employee\Google Drive\UP\MyResearch\TaskProgramming\AB_pic\resources\moon.jpg,C:\Users\Employee\Google Drive\UP\MyResearch\TaskProgramming\AB_pic\resources\statue.jpg,271.1177606000565,None,271.1177606000565,None,left,0.9140812000259757,271.1177606000565,None,272.0506267400342,None,None,272.0506267400342,None,,,001,2021_Mar_15_1408,AB_pic,2020.2.10,60.00621663549489,
AB,lag3,3,4,7,0.05,0.2,0,56,56,38,christmaslights.jpg,fishingrod.jpg,leafblower01.jpg,noparkingsign.jpg,bench01.jpg,cruiseship.jpg,mummy.jpg,birdnest.jpg,showerhead01.jpg,banjo.jpg,cobra.jpg,sink.jpg,turnstile.jpg,stool01.jpg,trampoline.jpg,swordfish.jpg,eiffeltower.jpg,9,272.08393169997726,None,272.08393169997726,None,272.08393169997726,None,True,C:\Users\Employee\Google Drive\UP\MyResearch\TaskProgramming\AB_pic\resources\eiffeltower.jpg,C:\Users\Employee\Google Drive\UP\MyResearch\TaskProgramming\AB_pic\resources\mummy.jpg,274.5842040000716,None,274.5842040000716,None,right,0.7436091999989003,274.5842040000716,None,C:\Users\Employee\Google Drive\UP\MyResearch\TaskProgramming\AB_pic\resources\noparkingsign.jpg,C:\Users\Employee\Google Drive\UP\MyResearch\TaskProgramming\AB_pic\resources\swordfish.jpg,275.36704739998095,None,275.36704739998095,None,right,0.4247985000256449,275.36704739998095,None,275.8170488400501,None,None,275.8170488400501,None,,,001,2021_Mar_15_1408,AB_pic,2020.2.10,60.00621663549489,
AB,lag3,3,3,6,0.05,0.2,0,57,57,108,bowlingball.jpg,doghouse.jpg,moon.jpg,jeans01.jpg,fishingrod.jpg,statue.jpg,spicerack.jpg,stool01.jpg,jellybean.jpg,crab01.jpg,noparkingsign.jpg,daddylonglegs.jpg,treadmill.jpg,cobra.jpg,turnstile.jpg,birdnest.jpg,jellyfish.jpg,8,275.8503454000456,None,275.8503454000456,None,275.8503454000456,None,True,C:\Users\Employee\Google Drive\UP\MyResearch\TaskProgramming\AB_pic\resources\statue.jpg,C:\Users\Employee\Google Drive\UP\MyResearch\TaskProgramming\AB_pic\resources\jellyfish.jpg,278.1173031000653,None,278.1173031000653,None,left,0.5625579999759793,278.1173031000653,None,C:\Users\Employee\Google Drive\UP\MyResearch\TaskProgramming\AB_pic\resources\birdnest.jpg,C:\Users\Employee\Google Drive\UP\MyResearch\TaskProgramming\AB_pic\resources\moon.jpg,278.7172561000334,None,278.7172561000334,None,left,0.43462840002030134,278.7172561000334,None,279.1672753400053,None,None,279.1672753400053,None,,,001,2021_Mar_15_1408,AB_pic,2020.2.10,60.00621663549489,
AB,lag4,4,5,9,0.05,0.2,0,58,58,127,doghouse.jpg,magneticcompass.jpg,chefshat.jpg,christmaslights.jpg,mailbox02.jpg,musicsheet.jpg,treadmill.jpg,dandelion.jpg,stool01.jpg,snowshovel.jpg,swordfish.jpg,moon.jpg,fishingrod.jpg,jellybean.jpg,jeans01.jpg,church.jpg,birdnest.jpg,11,279.2005603000289,None,279.2005603000289,None,279.2005603000289,None,False,C:\Users\Employee\Google Drive\UP\MyResearch\TaskProgramming\AB_pic\resources\birdnest.jpg,C:\Users\Employee\Google Drive\UP\MyResearch\TaskProgramming\AB_pic\resources\stool01.jpg,282.20035780000035,None,282.20035780000035,None,left,0.43146460002753884,282.20035780000035,None,C:\Users\Employee\Google Drive\UP\MyResearch\TaskProgramming\AB_pic\resources\mailbox02.jpg,C:\Users\Employee\Google Drive\UP\MyResearch\TaskProgramming\AB_pic\resources\church.jpg,282.66699759999756,None,282.66699759999756,None,left,0.4529100999934599,282.66699759999756,None,283.150337840023,None,None,283.150337840023,None,,,001,2021_Mar_15_1408,AB_pic,2020.2.10,60.00621663549489,
AB,lag6,6,3,9,0.05,0.2,0,59,59,116,bench01.jpg,pig.jpg,dandelion.jpg,treadmill.jpg,turnstile.jpg,mummy.jpg,snowshovel.jpg,stool01.jpg,doghouse.jpg,mailbox02.jpg,swordfish.jpg,jellyfish.jpg,chefshat.jpg,safe.jpg,musicsheet.jpg,jeans01.jpg,church.jpg,11,283.1670299000107,None,283.1670299000107,None,283.1670299000107,None,True,C:\Users\Employee\Google Drive\UP\MyResearch\TaskProgramming\AB_pic\resources\doghouse.jpg,C:\Users\Employee\Google Drive\UP\MyResearch\TaskProgramming\AB_pic\resources\church.jpg,286.2001130999997,None,286.2001130999997,None,left,0.5758070999290794,286.2001130999997,None,C:\Users\Employee\Google Drive\UP\MyResearch\TaskProgramming\AB_pic\resources\dandelion.jpg,C:\Users\Employee\Google Drive\UP\MyResearch\TaskProgramming\AB_pic\resources\jeans01.jpg,286.8167532000225,None,286.8167532000225,None,left,0.383079000050202,286.8167532000225,None,287.216753440036,None,None,287.216753440036,None,,,001,2021_Mar_15_1408,AB_pic,2020.2.10,60.00621663549489,
AB,lag6,6,3,9,0.05,0.2,0,60,60,48,eyepatch.jpg,magneticcompass.jpg,eiffeltower.jpg,trampoline.jpg,fishingrod.jpg,swordfish.jpg,jeans01.jpg,cupcake.jpg,treadmill.jpg,spicerack.jpg,footballhelmet.jpg,doghouse.jpg,crab01.jpg,showerhead01.jpg,chefshat.jpg,banjo.jpg,snowshovel.jpg,11,287.25011909997556,None,287.25011909997556,None,287.25011909997556,None,False,C:\Users\Employee\Google Drive\UP\MyResearch\TaskProgramming\AB_pic\resources\snowshovel.jpg,C:\Users\Employee\Google Drive\UP\MyResearch\TaskProgramming\AB_pic\resources\treadmill.jpg,290.2498476000037,None,290.2498476000037,None,right,1.3899964999873191,290.2498476000037,None,C:\Users\Employee\Google Drive\UP\MyResearch\TaskProgramming\AB_pic\resources\eiffeltower.jpg,C:\Users\Employee\Google Drive\UP\MyResearch\TaskProgramming\AB_pic\resources\banjo.jpg,291.6826484000776,None,291.6826484000776,None,left,0.4772360000060871,291.6826484000776,None,292.18265564000467,None,None,292.18265564000467,None,,,001,2021_Mar_15_1408,AB_pic,2020.2.10,60.00621663549489,
AB,lag6,6,4,10,0.05,0.2,0,61,61,86,doghouse.jpg,church.jpg,swordfish.jpg,cruiseship.jpg,dandelion.jpg,stool01.jpg,footballhelmet.jpg,christmaslights.jpg,turnstile.jpg,banjo.jpg,jellybean.jpg,cobra.jpg,pig.jpg,birdnest.jpg,statue.jpg,jeans01.jpg,magneticcompass.jpg,12,292.2159480000846,None,292.2159480000846,None,292.2159480000846,None,False,C:\Users\Employee\Google Drive\UP\MyResearch\TaskProgramming\AB_pic\resources\banjo.jpg,C:\Users\Employee\Google Drive\UP\MyResearch\TaskProgramming\AB_pic\resources\magneticcompass.jpg,295.48283100000117,None,295.48283100000117,None,right,0.6930564999347553,295.48283100000117,None,C:\Users\Employee\Google Drive\UP\MyResearch\TaskProgramming\AB_pic\resources\jeans01.jpg,C:\Users\Employee\Google Drive\UP\MyResearch\TaskProgramming\AB_pic\resources\cruiseship.jpg,296.21612610004377,None,296.21612610004377,None,right,0.4958011000417173,296.21612610004377,None,296.73231794004096,None,None,296.73231794004096,None,,,001,2021_Mar_15_1408,AB_pic,2020.2.10,60.00621663549489,
AB,lag4,4,3,7,0.05,0.2,0,62,62,80,banjo.jpg,eiffeltower.jpg,jellybean.jpg,sink.jpg,eyepatch.jpg,moon.jpg,snowshovel.jpg,cobra.jpg,showerhead01.jpg,magneticcompass.jpg,pig.jpg,bench01.jpg,musicsheet.jpg,mummy.jpg,church.jpg,turnstile.jpg,cruiseship.jpg,9,296.7489885999821,None,296.7489885999821,None,296.7489885999821,None,True,C:\Users\Employee\Google Drive\UP\MyResearch\TaskProgramming\AB_pic\resources\cruiseship.jpg,C:\Users\Employee\Google Drive\UP\MyResearch\TaskProgramming\AB_pic\resources\snowshovel.jpg,299.2492551000323,None,299.2492551000323,None,right,0.6866267001023516,299.2492551000323,None,C:\Users\Employee\Google Drive\UP\MyResearch\TaskProgramming\AB_pic\resources\jellybean.jpg,C:\Users\Employee\Google Drive\UP\MyResearch\TaskProgramming\AB_pic\resources\turnstile.jpg,299.9825572000118,None,299.9825572000118,None,right,0.42531189997680485,299.9825572000118,None,300.43211314006476,None,None,300.43211314006476,None,,,001,2021_Mar_15_1408,AB_pic,2020.2.10,60.00621663549489,
AB,lag3,3,5,8,0.05,0.2,0,63,63,75,cobra.jpg,cupcake.jpg,snowshovel.jpg,bowlingball.jpg,jellybean.jpg,noparkingsign.jpg,swordfish.jpg,pig.jpg,leafblower01.jpg,christmaslights.jpg,eyepatch.jpg,bench01.jpg,showerhead01.jpg,mailbox02.jpg,church.jpg,doghouse.jpg,mummy.jpg,10,300.4658386000665,None,300.4658386000665,None,300.4658386000665,None,True,C:\Users\Employee\Google Drive\UP\MyResearch\TaskProgramming\AB_pic\resources\pig.jpg,C:\Users\Employee\Google Drive\UP\MyResearch\TaskProgramming\AB_pic\resources\mummy.jpg,303.2323621000396,None,303.2323621000396,None,left,0.6074624999891967,303.2323621000396,None,C:\Users\Employee\Google Drive\UP\MyResearch\TaskProgramming\AB_pic\resources\jellybean.jpg,C:\Users\Employee\Google Drive\UP\MyResearch\TaskProgramming\AB_pic\resources\doghouse.jpg,303.88231510005426,None,303.88231510005426,None,right,0.4134904000675306,303.88231510005426,None,304.3156108400435,None,None,304.3156108400435,None,,,001,2021_Mar_15_1408,AB_pic,2020.2.10,60.00621663549489,
AB,lag5,5,3,8,0.05,0.2,0,64,64,141,eyepatch.jpg,footballhelmet.jpg,fishingrod.jpg,treadmill.jpg,mailbox02.jpg,chefshat.jpg,trampoline.jpg,christmaslights.jpg,spicerack.jpg,cupcake.jpg,bowlingball.jpg,crab01.jpg,snowshovel.jpg,swordfish.jpg,daddylonglegs.jpg,cruiseship.jpg,jellybean.jpg,10,304.34892860008404,None,304.34892860008404,None,304.34892860008404,None,False,C:\Users\Employee\Google Drive\UP\MyResearch\TaskProgramming\AB_pic\resources\christmaslights.jpg,C:\Users\Employee\Google Drive\UP\MyResearch\TaskProgramming\AB_pic\resources\jellybean.jpg,307.11543630005326,None,307.11543630005326,None,left,0.3963250999804586,307.11543630005326,None,C:\Users\Employee\Google Drive\UP\MyResearch\TaskProgramming\AB_pic\resources\fishingrod.jpg,C:\Users\Employee\Google Drive\UP\MyResearch\TaskProgramming\AB_pic\resources\cruiseship.jpg,307.5487446000334,None,307.5487446000334,None,left,1.1231953999958932,307.5487446000334,None,308.6982415400562,None,None,308.6982415400562,None,,,001,2021_Mar_15_1408,AB_pic,2020.2.10,60.00621663549489,
AB,lag1,1,4,5,0.05,0.2,0,65,65,67,jellybean.jpg,turnstile.jpg,footballhelmet.jpg,cobra.jpg,bench01.jpg,stool01.jpg,statue.jpg,magneticcompass.jpg,jeans01.jpg,mailbox02.jpg,christmaslights.jpg,fishingrod.jpg,birdnest.jpg,musicsheet.jpg,swordfish.jpg,cupcake.jpg,eiffeltower.jpg,7,308.7148989000125,None,308.7148989000125,None,308.7148989000125,None,False,C:\Users\Employee\Google Drive\UP\MyResearch\TaskProgramming\AB_pic\resources\bench01.jpg,C:\Users\Employee\Google Drive\UP\MyResearch\TaskProgramming\AB_pic\resources\eiffeltower.jpg,310.7151749000186,None,310.7151749000186,None,left,0.5726555999135599,310.7151749000186,None,C:\Users\Employee\Google Drive\UP\MyResearch\TaskProgramming\AB_pic\resources\cobra.jpg,C:\Users\Employee\Google Drive\UP\MyResearch\TaskProgramming\AB_pic\resources\cupcake.jpg,311.33181900007185,None,311.33181900007185,None,right,1.6040611000498757,311.33181900007185,None,312.9646321400651,None,None,312.9646321400651,None,,,001,2021_Mar_15_1408,AB_pic,2020.2.10,60.00621663549489,
AB,lag5,5,4,9,0.05,0.2,0,66,66,63,chefshat.jpg,sink.jpg,doghouse.jpg,magneticcompass.jpg,showerhead01.jpg,trampoline.jpg,bowlingball.jpg,cupcake.jpg,treadmill.jpg,mummy.jpg,church.jpg,bench01.jpg,pig.jpg,banjo.jpg,eyepatch.jpg,turnstile.jpg,jellybean.jpg,11,312.99835960008204,None,312.99835960008204,None,312.99835960008204,None,True,C:\Users\Employee\Google Drive\UP\MyResearch\TaskProgramming\AB_pic\resources\treadmill.jpg,C:\Users\Employee\Google Drive\UP\MyResearch\TaskProgramming\AB_pic\resources\jellybean.jpg,315.9982385999756,None,315.9982385999756,None,left,0.5776779999723658,315.9982385999756,None,C:\Users\Employee\Google Drive\UP\MyResearch\TaskProgramming\AB_pic\resources\magneticcompass.jpg,C:\Users\Employee\Google Drive\UP\MyResearch\TaskProgramming\AB_pic\resources\turnstile.jpg,316.61486089997925,None,316.61486089997925,None,right,0.35311119991820306,316.61486089997925,None,316.99819493998075,None,None,316.99819493998075,None,,,001,2021_Mar_15_1408,AB_pic,2020.2.10,60.00621663549489,
AB,lag5,5,3,8,0.05,0.2,0,67,67,68,treadmill.jpg,safe.jpg,jeans01.jpg,magneticcompass.jpg,mailbox02.jpg,statue.jpg,pig.jpg,noparkingsign.jpg,birdnest.jpg,moon.jpg,stool01.jpg,sink.jpg,jellybean.jpg,trampoline.jpg,bowlingball.jpg,cruiseship.jpg,chefshat.jpg,10,317.0148414000869,None,317.0148414000869,None,317.0148414000869,None,True,C:\Users\Employee\Google Drive\UP\MyResearch\TaskProgramming\AB_pic\resources\chefshat.jpg,C:\Users\Employee\Google Drive\UP\MyResearch\TaskProgramming\AB_pic\resources\noparkingsign.jpg,319.7812607000815,None,319.7812607000815,None,right,1.3388195999432355,319.7812607000815,None,C:\Users\Employee\Google Drive\UP\MyResearch\TaskProgramming\AB_pic\resources\cruiseship.jpg,C:\Users\Employee\Google Drive\UP\MyResearch\TaskProgramming\AB_pic\resources\jeans01.jpg,321.16449680004735,None,321.16449680004735,None,left,1.0674675999907777,321.16449680004735,None,322.26401354005793,None,None,322.26401354005793,None,,,001,2021_Mar_15_1408,AB_pic,2020.2.10,60.00621663549489,
AB,lag2,2,4,6,0.05,0.2,0,68,68,28,magneticcompass.jpg,trampoline.jpg,swordfish.jpg,stool01.jpg,bench01.jpg,fishingrod.jpg,noparkingsign.jpg,jellyfish.jpg,pig.jpg,birdnest.jpg,crab01.jpg,footballhelmet.jpg,snowshovel.jpg,safe.jpg,dandelion.jpg,banjo.jpg,cobra.jpg,8,322.2806575000286,None,322.2806575000286,None,322.2806575000286,None,False,C:\Users\Employee\Google Drive\UP\MyResearch\TaskProgramming\AB_pic\resources\cobra.jpg,C:\Users\Employee\Google Drive\UP\MyResearch\TaskProgramming\AB_pic\resources\fishingrod.jpg,324.54764040000737,None,324.54764040000737,None,right,0.6602123999036849,324.54764040000737,None,C:\Users\Employee\Google Drive\UP\MyResearch\TaskProgramming\AB_pic\resources\banjo.jpg,C:\Users\Employee\Google Drive\UP\MyResearch\TaskProgramming\AB_pic\resources\stool01.jpg,325.24755980004556,None,325.24755980004556,None,left,0.36030349996872246,325.24755980004556,None,325.6304611400119,None,None,325.6304611400119,None,,,001,2021_Mar_15_1408,AB_pic,2020.2.10,60.00621663549489,
AB,lag5,5,5,10,0.05,0.2,0,69,69,5,chefshat.jpg,noparkingsign.jpg,trampoline.jpg,banjo.jpg,birdnest.jpg,magneticcompass.jpg,daddylonglegs.jpg,moon.jpg,sink.jpg,mailbox02.jpg,pig.jpg,footballhelmet.jpg,mummy.jpg,jeans01.jpg,musicsheet.jpg,safe.jpg,leafblower01.jpg,12,325.66377700003795,None,325.66377700003795,None,325.66377700003795,None,False,C:\Users\Employee\Google Drive\UP\MyResearch\TaskProgramming\AB_pic\resources\mailbox02.jpg,C:\Users\Employee\Google Drive\UP\MyResearch\TaskProgramming\AB_pic\resources\leafblower01.jpg,328.9306591000641,None,328.9306591000641,None,right,0.4932498000562191,328.9306591000641,None,C:\Users\Employee\Google Drive\UP\MyResearch\TaskProgramming\AB_pic\resources\safe.jpg,C:\Users\Employee\Google Drive\UP\MyResearch\TaskProgramming\AB_pic\resources\birdnest.jpg,329.4640037000645,None,329.4640037000645,None,right,0.4480449999682605,329.4640037000645,None,329.93061674007913,None,None,329.93061674007913,None,,,001,2021_Mar_15_1408,AB_pic,2020.2.10,60.00621663549489,
AB,lag5,5,5,10,0.05,0.2,0,70,70,94,fishingrod.jpg,sink.jpg,footballhelmet.jpg,magneticcompass.jpg,cruiseship.jpg,treadmill.jpg,snowshovel.jpg,stool01.jpg,cobra.jpg,cupcake.jpg,banjo.jpg,jellybean.jpg,spicerack.jpg,turnstile.jpg,jellyfish.jpg,bowlingball.jpg,jeans01.jpg,12,329.96392020001076,None,329.96392020001076,None,329.96392020001076,None,False,C:\Users\Employee\Google Drive\UP\MyResearch\TaskProgramming\AB_pic\resources\cupcake.jpg,C:\Users\Employee\Google Drive\UP\MyResearch\TaskProgramming\AB_pic\resources\jeans01.jpg,333.2303777000634,None,333.2303777000634,None,left,0.5855844999896362,333.2303777000634,None,C:\Users\Employee\Google Drive\UP\MyResearch\TaskProgramming\AB_pic\resources\cruiseship.jpg,C:\Users\Employee\Google Drive\UP\MyResearch\TaskProgramming\AB_pic\resources\bowlingball.jpg,333.86368110007606,None,333.86368110007606,None,right,0.5441053999820724,333.86368110007606,None,334.4299881400657,None,None,334.4299881400657,None,,,001,2021_Mar_15_1408,AB_pic,2020.2.10,60.00621663549489,
AB,lag4,4,4,8,0.05,0.2,0,71,71,98,christmaslights.jpg,musicsheet.jpg,banjo.jpg,birdnest.jpg,crab01.jpg,cobra.jpg,pig.jpg,showerhead01.jpg,sink.jpg,cruiseship.jpg,noparkingsign.jpg,fishingrod.jpg,daddylonglegs.jpg,mummy.jpg,footballhelmet.jpg,trampoline.jpg,safe.jpg,10,334.4467203000095,None,334.4467203000095,None,334.4467203000095,None,False,C:\Users\Employee\Google Drive\UP\MyResearch\TaskProgramming\AB_pic\resources\safe.jpg,C:\Users\Employee\Google Drive\UP\MyResearch\TaskProgramming\AB_pic\resources\showerhead01.jpg,337.21358570002485,None,337.21358570002485,None,right,0.7062256999779493,337.21358570002485,None,C:\Users\Employee\Google Drive\UP\MyResearch\TaskProgramming\AB_pic\resources\trampoline.jpg,C:\Users\Employee\Google Drive\UP\MyResearch\TaskProgramming\AB_pic\resources\birdnest.jpg,337.96341650001705,None,337.96341650001705,None,left,0.38084610004443675,337.96341650001705,None,338.3629710400128,None,None,338.3629710400128,None,,,001,2021_Mar_15_1408,AB_pic,2020.2.10,60.00621663549489,
AB,lag7,7,4,11,0.05,0.2,0,72,72,156,swordfish.jpg,birdnest.jpg,banjo.jpg,statue.jpg,showerhead01.jpg,trampoline.jpg,leafblower01.jpg,christmaslights.jpg,eyepatch.jpg,church.jpg,fishingrod.jpg,turnstile.jpg,treadmill.jpg,musicsheet.jpg,magneticcompass.jpg,jeans01.jpg,jellyfish.jpg,13,338.37962750007864,None,338.37962750007864,None,338.37962750007864,None,False,C:\Users\Employee\Google Drive\UP\MyResearch\TaskProgramming\AB_pic\resources\jellyfish.jpg,C:\Users\Employee\Google Drive\UP\MyResearch\TaskProgramming\AB_pic\resources\fishingrod.jpg,341.8977734000655,None,341.8977734000655,None,right,0.9820376000134274,341.8977734000655,None,C:\Users\Employee\Google Drive\UP\MyResearch\TaskProgramming\AB_pic\resources\statue.jpg,C:\Users\Employee\Google Drive\UP\MyResearch\TaskProgramming\AB_pic\resources\jeans01.jpg,342.91335450008046,None,342.91335450008046,None,left,0.4784432000014931,342.91335450008046,None,343.41265743999975,None,None,343.41265743999975,None,,,001,2021_Mar_15_1408,AB_pic,2020.2.10,60.00621663549489,
AB,lag7,7,5,12,0.05,0.2,0,73,73,138,mummy.jpg,sink.jpg,church.jpg,chefshat.jpg,jellyfish.jpg,swordfish.jpg,spicerack.jpg,cobra.jpg,daddylonglegs.jpg,footballhelmet.jpg,bench01.jpg,christmaslights.jpg,doghouse.jpg,safe.jpg,treadmill.jpg,leafblower01.jpg,stool01.jpg,,343.4292973000556,None,343.4292973000556,None,343.4292973000556,None,False,C:\Users\Employee\Google Drive\UP\MyResearch\TaskProgramming\AB_pic\resources\stool01.jpg,C:\Users\Employee\Google Drive\UP\MyResearch\TaskProgramming\AB_pic\resources\christmaslights.jpg,347.19613799999934,None,347.19613799999934,None,right,0.5557990000816062,347.19613799999934,None,C:\Users\Employee\Google Drive\UP\MyResearch\TaskProgramming\AB_pic\resources\leafblower01.jpg,C:\Users\Employee\Google Drive\UP\MyResearch\TaskProgramming\AB_pic\resources\jellyfish.jpg,347.7961385999806,None,347.7961385999806,None,left,0.3318908999208361,347.7961385999806,None,348.14612564007984,None,None,348.14612564007984,None,,,001,2021_Mar_15_1408,AB_pic,2020.2.10,60.00621663549489,
AB,lag5,5,5,10,0.05,0.2,0,74,74,145,bench01.jpg,musicsheet.jpg,banjo.jpg,eyepatch.jpg,stool01.jpg,spicerack.jpg,cupcake.jpg,dandelion.jpg,snowshovel.jpg,moon.jpg,doghouse.jpg,chefshat.jpg,treadmill.jpg,pig.jpg,leafblower01.jpg,bowlingball.jpg,statue.jpg,12,348.1794713999843,None,348.1794713999843,None,348.1794713999843,None,False,C:\Users\Employee\Google Drive\UP\MyResearch\TaskProgramming\AB_pic\resources\statue.jpg,C:\Users\Employee\Google Drive\UP\MyResearch\TaskProgramming\AB_pic\resources\moon.jpg,351.4155528000556,None,351.4155528000556,None,left,0.832493899972178,351.4155528000556,None,C:\Users\Employee\Google Drive\UP\MyResearch\TaskProgramming\AB_pic\resources\stool01.jpg,C:\Users\Employee\Google Drive\UP\MyResearch\TaskProgramming\AB_pic\resources\bowlingball.jpg,352.29581849998794,None,352.29581849998794,None,left,0.5044361000182107,352.29581849998794,None,352.8287190400879,None,None,352.8287190400879,None,,,001,2021_Mar_15_1408,AB_pic,2020.2.10,60.00621663549489,
AB,lag7,7,3,10,0.05,0.2,0,75,75,73,chefshat.jpg,stool01.jpg,mailbox02.jpg,christmaslights.jpg,doghouse.jpg,cobra.jpg,leafblower01.jpg,noparkingsign.jpg,trampoline.jpg,swordfish.jpg,daddylonglegs.jpg,birdnest.jpg,moon.jpg,treadmill.jpg,magneticcompass.jpg,dandelion.jpg,crab01.jpg,12,352.845355700003,None,352.845355700003,None,352.845355700003,None,False,C:\Users\Employee\Google Drive\UP\MyResearch\TaskProgramming\AB_pic\resources\swordfish.jpg,C:\Users\Employee\Google Drive\UP\MyResearch\TaskProgramming\AB_pic\resources\crab01.jpg,356.11224500008393,None,356.11224500008393,None,right,0.5516685999464244,356.11224500008393,None,C:\Users\Employee\Google Drive\UP\MyResearch\TaskProgramming\AB_pic\resources\dandelion.jpg,C:\Users\Employee\Google Drive\UP\MyResearch\TaskProgramming\AB_pic\resources\mailbox02.jpg,356.69553130003624,None,356.69553130003624,None,right,0.4722768000792712,356.69553130003624,None,357.1956989400205,None,None,357.1956989400205,None,,,001,2021_Mar_15_1408,AB_pic,2020.2.10,60.00621663549489,
AB,lag1,1,4,5,0.05,0.2,0,76,76,4,bowlingball.jpg,musicsheet.jpg,church.jpg,jeans01.jpg,sink.jpg,jellybean.jpg,dandelion.jpg,eiffeltower.jpg,fishingrod.jpg,bench01.jpg,moon.jpg,birdnest.jpg,crab01.jpg,safe.jpg,swordfish.jpg,leafblower01.jpg,spicerack.jpg,7,357.21490050002467,None,357.21490050002467,None,357.21490050002467,None,False,C:\Users\Employee\Google Drive\UP\MyResearch\TaskProgramming\AB_pic\resources\sink.jpg,C:\Users\Employee\Google Drive\UP\MyResearch\TaskProgramming\AB_pic\resources\spicerack.jpg,359.21158630005084,None,359.21158630005084,None,left,0.7883749000029638,359.21158630005084,None,C:\Users\Employee\Google Drive\UP\MyResearch\TaskProgramming\AB_pic\resources\jeans01.jpg,C:\Users\Employee\Google Drive\UP\MyResearch\TaskProgramming\AB_pic\resources\leafblower01.jpg,360.0453255000757,None,360.0453255000757,None,right,1.0905564000131562,360.0453255000757,None,361.16149363998557,None,None,361.16149363998557,None,,,001,2021_Mar_15_1408,AB_pic,2020.2.10,60.00621663549489,
AB,lag7,7,5,12,0.05,0.2,0,77,77,159,church.jpg,mailbox02.jpg,noparkingsign.jpg,jellyfish.jpg,musicsheet.jpg,swordfish.jpg,jellybean.jpg,christmaslights.jpg,bench01.jpg,daddylonglegs.jpg,spicerack.jpg,moon.jpg,cruiseship.jpg,statue.jpg,dandelion.jpg,pig.jpg,stool01.jpg,,361.17816660006065,None,361.17816660006065,None,361.17816660006065,None,False,C:\Users\Employee\Google Drive\UP\MyResearch\TaskProgramming\AB_pic\resources\moon.jpg,C:\Users\Employee\Google Drive\UP\MyResearch\TaskProgramming\AB_pic\resources\stool01.jpg,364.94507570005953,None,364.94507570005953,None,right,0.4468739000149071,364.94507570005953,None,C:\Users\Employee\Google Drive\UP\MyResearch\TaskProgramming\AB_pic\resources\pig.jpg,C:\Users\Employee\Google Drive\UP\MyResearch\TaskProgramming\AB_pic\resources\musicsheet.jpg,365.4282957999967,None,365.4282957999967,None,right,0.4035342999268323,365.4282957999967,None,365.86160274007125,None,None,365.86160274007125,None,,,001,2021_Mar_15_1408,AB_pic,2020.2.10,60.00621663549489,
AB,lag1,1,3,4,0.05,0.2,0,78,78,15,cobra.jpg,showerhead01.jpg,treadmill.jpg,musicsheet.jpg,leafblower01.jpg,bowlingball.jpg,spicerack.jpg,trampoline.jpg,footballhelmet.jpg,snowshovel.jpg,church.jpg,cruiseship.jpg,doghouse.jpg,swordfish.jpg,cupcake.jpg,magneticcompass.jpg,birdnest.jpg,6,365.87826420005877,None,365.87826420005877,None,365.87826420005877,None,False,C:\Users\Employee\Google Drive\UP\MyResearch\TaskProgramming\AB_pic\resources\birdnest.jpg,C:\Users\Employee\Google Drive\UP\MyResearch\TaskProgramming\AB_pic\resources\musicsheet.jpg,367.64489410002716,None,367.64489410002716,None,left,0.6190232000080869,367.64489410002716,None,C:\Users\Employee\Google Drive\UP\MyResearch\TaskProgramming\AB_pic\resources\treadmill.jpg,C:\Users\Employee\Google Drive\UP\MyResearch\TaskProgramming\AB_pic\resources\magneticcompass.jpg,368.3114427999826,None,368.3114427999826,None,right,1.4325362000381574,368.3114427999826,None,369.7608978400822,None,None,369.7608978400822,None,,,001,2021_Mar_15_1408,AB_pic,2020.2.10,60.00621663549489,
AB,lag3,3,4,7,0.05,0.2,0,79,79,71,mailbox02.jpg,turnstile.jpg,musicsheet.jpg,trampoline.jpg,spicerack.jpg,mummy.jpg,crab01.jpg,statue.jpg,moon.jpg,bench01.jpg,stool01.jpg,treadmill.jpg,jellybean.jpg,doghouse.jpg,bowlingball.jpg,jellyfish.jpg,sink.jpg,9,369.77757230005227,None,369.77757230005227,None,369.77757230005227,None,True,C:\Users\Employee\Google Drive\UP\MyResearch\TaskProgramming\AB_pic\resources\sink.jpg,C:\Users\Employee\Google Drive\UP\MyResearch\TaskProgramming\AB_pic\resources\crab01.jpg,372.277851400082,None,372.277851400082,None,right,0.6980513000162318,372.277851400082,None,C:\Users\Employee\Google Drive\UP\MyResearch\TaskProgramming\AB_pic\resources\trampoline.jpg,C:\Users\Employee\Google Drive\UP\MyResearch\TaskProgramming\AB_pic\resources\jellyfish.jpg,373.011137100053,None,373.011137100053,None,right,0.43673620000481606,373.011137100053,None,373.47733074001735,None,None,373.47733074001735,None,,,001,2021_Mar_15_1408,AB_pic,2020.2.10,60.00621663549489,
AB,lag1,1,5,6,0.05,0.2,0,80,80,89,stool01.jpg,snowshovel.jpg,safe.jpg,musicsheet.jpg,crab01.jpg,doghouse.jpg,dandelion.jpg,jeans01.jpg,noparkingsign.jpg,statue.jpg,magneticcompass.jpg,eyepatch.jpg,banjo.jpg,christmaslights.jpg,mummy.jpg,swordfish.jpg,chefshat.jpg,8,373.4939988000551,None,373.4939988000551,None,373.4939988000551,None,True,C:\Users\Employee\Google Drive\UP\MyResearch\TaskProgramming\AB_pic\resources\chefshat.jpg,C:\Users\Employee\Google Drive\UP\MyResearch\TaskProgramming\AB_pic\resources\doghouse.jpg,375.760970500065,None,375.760970500065,None,right,2.1109436999540776,375.760970500065,None,C:\Users\Employee\Google Drive\UP\MyResearch\TaskProgramming\AB_pic\resources\crab01.jpg,C:\Users\Employee\Google Drive\UP\MyResearch\TaskProgramming\AB_pic\resources\swordfish.jpg,377.910380300018,None,377.910380300018,None,left,0.9455592999001965,377.910380300018,None,378.89364810008556,None,space,378.89364810008556,None,28.994235699996352,,001,2021_Mar_15_1408,AB_pic,2020.2.10,60.00621663549489,
AB,lag4,4,3,7,0.05,0.2,0,81,81,143,leafblower01.jpg,doghouse.jpg,christmaslights.jpg,treadmill.jpg,turnstile.jpg,safe.jpg,sink.jpg,mailbox02.jpg,dandelion.jpg,eiffeltower.jpg,trampoline.jpg,chefshat.jpg,showerhead01.jpg,crab01.jpg,stool01.jpg,pig.jpg,musicsheet.jpg,9,407.9255505000474,None,407.9255505000474,None,407.9255505000474,None,False,C:\Users\Employee\Google Drive\UP\MyResearch\TaskProgramming\AB_pic\resources\sink.jpg,C:\Users\Employee\Google Drive\UP\MyResearch\TaskProgramming\AB_pic\resources\musicsheet.jpg,410.4253699000692,None,410.4253699000692,None,left,0.41456920001655817,410.4253699000692,None,C:\Users\Employee\Google Drive\UP\MyResearch\TaskProgramming\AB_pic\resources\christmaslights.jpg,C:\Users\Employee\Google Drive\UP\MyResearch\TaskProgramming\AB_pic\resources\pig.jpg,410.87534190004226,None,410.87534190004226,None,right,0.5085427000885829,410.87534190004226,None,411.4082217399846,None,None,411.4082217399846,None,,,001,2021_Mar_15_1408,AB_pic,2020.2.10,60.00621663549489,
AB,lag4,4,3,7,0.05,0.2,0,82,82,142,christmaslights.jpg,chefshat.jpg,crab01.jpg,stool01.jpg,fishingrod.jpg,sink.jpg,moon.jpg,cobra.jpg,showerhead01.jpg,musicsheet.jpg,mummy.jpg,treadmill.jpg,statue.jpg,birdnest.jpg,snowshovel.jpg,cupcake.jpg,noparkingsign.jpg,9,411.44153240008745,None,411.44153240008745,None,411.44153240008745,None,True,C:\Users\Employee\Google Drive\UP\MyResearch\TaskProgramming\AB_pic\resources\moon.jpg,C:\Users\Employee\Google Drive\UP\MyResearch\TaskProgramming\AB_pic\resources\noparkingsign.jpg,413.9418309000321,None,413.9418309000321,None,left,0.46606500004418194,413.9418309000321,None,C:\Users\Employee\Google Drive\UP\MyResearch\TaskProgramming\AB_pic\resources\cupcake.jpg,C:\Users\Employee\Google Drive\UP\MyResearch\TaskProgramming\AB_pic\resources\crab01.jpg,414.4417723000515,None,414.4417723000515,None,left,0.4781785000814125,414.4417723000515,None,414.9417880400433,None,None,414.9417880400433,None,,,001,2021_Mar_15_1408,AB_pic,2020.2.10,60.00621663549489,
AB,lag6,6,3,9,0.05,0.2,0,83,83,131,jellybean.jpg,mummy.jpg,cruiseship.jpg,sink.jpg,musicsheet.jpg,doghouse.jpg,showerhead01.jpg,cobra.jpg,trampoline.jpg,moon.jpg,bench01.jpg,magneticcompass.jpg,snowshovel.jpg,jellyfish.jpg,mailbox02.jpg,turnstile.jpg,statue.jpg,11,414.9750771999825,None,414.9750771999825,None,414.9750771999825,None,True,C:\Users\Employee\Google Drive\UP\MyResearch\TaskProgramming\AB_pic\resources\statue.jpg,C:\Users\Employee\Google Drive\UP\MyResearch\TaskProgramming\AB_pic\resources\trampoline.jpg,417.97487470007036,None,417.97487470007036,None,right,0.5690801000455394,417.97487470007036,None,C:\Users\Employee\Google Drive\UP\MyResearch\TaskProgramming\AB_pic\resources\cruiseship.jpg,C:\Users\Employee\Google Drive\UP\MyResearch\TaskProgramming\AB_pic\resources\turnstile.jpg,418.591494900058,None,418.591494900058,None,right,0.4485169000690803,418.591494900058,None,419.05818194005406,None,None,419.05818194005406,None,,,001,2021_Mar_15_1408,AB_pic,2020.2.10,60.00621663549489,
AB,lag6,6,5,11,0.05,0.2,0,84,84,74,leafblower01.jpg,fishingrod.jpg,cobra.jpg,safe.jpg,doghouse.jpg,christmaslights.jpg,spicerack.jpg,pig.jpg,mummy.jpg,footballhelmet.jpg,snowshovel.jpg,bench01.jpg,eiffeltower.jpg,statue.jpg,jeans01.jpg,crab01.jpg,dandelion.jpg,13,419.0748749000486,None,419.0748749000486,None,419.0748749000486,None,True,C:\Users\Employee\Google Drive\UP\MyResearch\TaskProgramming\AB_pic\resources\snowshovel.jpg,C:\Users\Employee\Google Drive\UP\MyResearch\TaskProgramming\AB_pic\resources\dandelion.jpg,422.591275600018,None,422.591275600018,None,left,0.5125776999630034,422.591275600018,None,C:\Users\Employee\Google Drive\UP\MyResearch\TaskProgramming\AB_pic\resources\crab01.jpg,C:\Users\Employee\Google Drive\UP\MyResearch\TaskProgramming\AB_pic\resources\doghouse.jpg,423.1412219000049,None,423.1412219000049,None,left,0.45069369999691844,423.1412219000049,None,423.607884940051,None,None,423.607884940051,None,,,001,2021_Mar_15_1408,AB_pic,2020.2.10,60.00621663549489,
AB,lag3,3,4,7,0.05,0.2,0,85,85,37,sink.jpg,bench01.jpg,cruiseship.jpg,jellyfish.jpg,noparkingsign.jpg,treadmill.jpg,spicerack.jpg,footballhelmet.jpg,magneticcompass.jpg,statue.jpg,trampoline.jpg,jeans01.jpg,birdnest.jpg,fishingrod.jpg,showerhead01.jpg,turnstile.jpg,cupcake.jpg,9,423.6245323000476,None,423.6245323000476,None,423.6245323000476,None,False,C:\Users\Employee\Google Drive\UP\MyResearch\TaskProgramming\AB_pic\resources\cupcake.jpg,C:\Users\Employee\Google Drive\UP\MyResearch\TaskProgramming\AB_pic\resources\spicerack.jpg,426.1243549999781,None,426.1243549999781,None,left,0.48361180000938475,426.1243549999781,None,C:\Users\Employee\Google Drive\UP\MyResearch\TaskProgramming\AB_pic\resources\jellyfish.jpg,C:\Users\Employee\Google Drive\UP\MyResearch\TaskProgramming\AB_pic\resources\turnstile.jpg,426.6409979000455,None,426.6409979000455,None,left,1.7831754999933764,426.6409979000455,None,428.4404354399885,None,None,428.4404354399885,None,,,001,2021_Mar_15_1408,AB_pic,2020.2.10,60.00621663549489,
AB,lag4,4,4,8,0.05,0.2,0,86,86,70,footballhelmet.jpg,safe.jpg,moon.jpg,banjo.jpg,mummy.jpg,mailbox02.jpg,turnstile.jpg,chefshat.jpg,christmaslights.jpg,eyepatch.jpg,musicsheet.jpg,doghouse.jpg,trampoline.jpg,bowlingball.jpg,sink.jpg,daddylonglegs.jpg,pig.jpg,10,428.45711229997687,None,428.45711229997687,None,428.45711229997687,None,False,C:\Users\Employee\Google Drive\UP\MyResearch\TaskProgramming\AB_pic\resources\pig.jpg,C:\Users\Employee\Google Drive\UP\MyResearch\TaskProgramming\AB_pic\resources\chefshat.jpg,431.22401310002897,None,431.22401310002897,None,right,0.5199543000198901,431.22401310002897,None,C:\Users\Employee\Google Drive\UP\MyResearch\TaskProgramming\AB_pic\resources\daddylonglegs.jpg,C:\Users\Employee\Google Drive\UP\MyResearch\TaskProgramming\AB_pic\resources\banjo.jpg,431.79063980001956,None,431.79063980001956,None,left,0.40133999998215586,431.79063980001956,None,432.20729524007766,None,None,432.20729524007766,None,,,001,2021_Mar_15_1408,AB_pic,2020.2.10,60.00621663549489,
AB,lag1,1,5,6,0.05,0.2,0,87,87,47,trampoline.jpg,spicerack.jpg,mummy.jpg,chefshat.jpg,treadmill.jpg,cupcake.jpg,showerhead01.jpg,bench01.jpg,leafblower01.jpg,moon.jpg,church.jpg,jeans01.jpg,snowshovel.jpg,christmaslights.jpg,magneticcompass.jpg,doghouse.jpg,cobra.jpg,8,432.2239501000149,None,432.2239501000149,None,432.2239501000149,None,True,C:\Users\Employee\Google Drive\UP\MyResearch\TaskProgramming\AB_pic\resources\cobra.jpg,C:\Users\Employee\Google Drive\UP\MyResearch\TaskProgramming\AB_pic\resources\cupcake.jpg,434.4904743999941,None,434.4904743999941,None,right,1.8054495999822393,434.4904743999941,None,C:\Users\Employee\Google Drive\UP\MyResearch\TaskProgramming\AB_pic\resources\doghouse.jpg,C:\Users\Employee\Google Drive\UP\MyResearch\TaskProgramming\AB_pic\resources\treadmill.jpg,436.3398986000102,None,436.3398986000102,None,left,0.45219310000538826,436.3398986000102,None,436.8232536400319,None,None,436.8232536400319,None,,,001,2021_Mar_15_1408,AB_pic,2020.2.10,60.00621663549489,
AB,lag1,1,4,5,0.05,0.2,0,88,88,130,leafblower01.jpg,fishingrod.jpg,cruiseship.jpg,chefshat.jpg,swordfish.jpg,moon.jpg,bowlingball.jpg,safe.jpg,jeans01.jpg,showerhead01.jpg,turnstile.jpg,crab01.jpg,eyepatch.jpg,magneticcompass.jpg,dandelion.jpg,spicerack.jpg,mailbox02.jpg,7,436.8398911000695,None,436.8398911000695,None,436.8398911000695,None,False,C:\Users\Employee\Google Drive\UP\MyResearch\TaskProgramming\AB_pic\resources\swordfish.jpg,C:\Users\Employee\Google Drive\UP\MyResearch\TaskProgramming\AB_pic\resources\mailbox02.jpg,438.87354040006176,None,438.87354040006176,None,left,1.4224373999750242,438.87354040006176,None,C:\Users\Employee\Google Drive\UP\MyResearch\TaskProgramming\AB_pic\resources\chefshat.jpg,C:\Users\Employee\Google Drive\UP\MyResearch\TaskProgramming\AB_pic\resources\spicerack.jpg,440.33965189999435,None,440.33965189999435,None,left,1.3802970999386162,440.33965189999435,None,441.7395913400105,None,None,441.7395913400105,None,,,001,2021_Mar_15_1408,AB_pic,2020.2.10,60.00621663549489,
AB,lag1,1,3,4,0.05,0.2,0,89,89,20,swordfish.jpg,footballhelmet.jpg,fishingrod.jpg,cruiseship.jpg,bench01.jpg,trampoline.jpg,mummy.jpg,jellybean.jpg,crab01.jpg,cupcake.jpg,snowshovel.jpg,doghouse.jpg,pig.jpg,magneticcompass.jpg,turnstile.jpg,leafblower01.jpg,birdnest.jpg,6,441.75622820004355,None,441.75622820004355,None,441.75622820004355,None,False,C:\Users\Employee\Google Drive\UP\MyResearch\TaskProgramming\AB_pic\resources\birdnest.jpg,C:\Users\Employee\Google Drive\UP\MyResearch\TaskProgramming\AB_pic\resources\cruiseship.jpg,443.52322390000336,None,443.52322390000336,None,left,0.5726778999669477,443.52322390000336,None,C:\Users\Employee\Google Drive\UP\MyResearch\TaskProgramming\AB_pic\resources\fishingrod.jpg,C:\Users\Employee\Google Drive\UP\MyResearch\TaskProgramming\AB_pic\resources\leafblower01.jpg,444.1398511000443,None,444.1398511000443,None,left,1.1721573000540957,444.1398511000443,None,445.3393528400338,None,None,445.3393528400338,None,,,001,2021_Mar_15_1408,AB_pic,2020.2.10,60.00621663549489,
AB,lag4,4,3,7,0.05,0.2,0,90,90,52,dandelion.jpg,jellyfish.jpg,birdnest.jpg,sink.jpg,bowlingball.jpg,cruiseship.jpg,pig.jpg,safe.jpg,showerhead01.jpg,swordfish.jpg,statue.jpg,fishingrod.jpg,turnstile.jpg,eiffeltower.jpg,cobra.jpg,footballhelmet.jpg,leafblower01.jpg,9,445.3559959999984,None,445.3559959999984,None,445.3559959999984,None,True,C:\Users\Employee\Google Drive\UP\MyResearch\TaskProgramming\AB_pic\resources\leafblower01.jpg,C:\Users\Employee\Google Drive\UP\MyResearch\TaskProgramming\AB_pic\resources\pig.jpg,447.8562475000508,None,447.8562475000508,None,right,1.111679100082256,447.8562475000508,None,C:\Users\Employee\Google Drive\UP\MyResearch\TaskProgramming\AB_pic\resources\birdnest.jpg,C:\Users\Employee\Google Drive\UP\MyResearch\TaskProgramming\AB_pic\resources\footballhelmet.jpg,449.00618730008136,None,449.00618730008136,None,right,0.5138390000211075,449.00618730008136,None,449.5390810400131,None,None,449.5390810400131,None,,,001,2021_Mar_15_1408,AB_pic,2020.2.10,60.00621663549489,
AB,lag6,6,3,9,0.05,0.2,0,91,91,76,mailbox02.jpg,snowshovel.jpg,doghouse.jpg,eyepatch.jpg,jeans01.jpg,sink.jpg,fishingrod.jpg,musicsheet.jpg,showerhead01.jpg,spicerack.jpg,swordfish.jpg,noparkingsign.jpg,crab01.jpg,footballhelmet.jpg,turnstile.jpg,bowlingball.jpg,banjo.jpg,11,449.5557196000591,None,449.5557196000591,None,449.5557196000591,None,True,C:\Users\Employee\Google Drive\UP\MyResearch\TaskProgramming\AB_pic\resources\showerhead01.jpg,C:\Users\Employee\Google Drive\UP\MyResearch\TaskProgramming\AB_pic\resources\banjo.jpg,452.55596760008484,None,452.55596760008484,None,left,1.0040815999964252,452.55596760008484,None,C:\Users\Employee\Google Drive\UP\MyResearch\TaskProgramming\AB_pic\resources\bowlingball.jpg,C:\Users\Employee\Google Drive\UP\MyResearch\TaskProgramming\AB_pic\resources\doghouse.jpg,453.6054263000842,None,453.6054263000842,None,left,0.7304914999986067,453.6054263000842,None,454.3554159399937,None,None,454.3554159399937,None,,,001,2021_Mar_15_1408,AB_pic,2020.2.10,60.00621663549489,
AB,lag7,7,5,12,0.05,0.2,0,92,92,19,cobra.jpg,moon.jpg,noparkingsign.jpg,snowshovel.jpg,mailbox02.jpg,jeans01.jpg,banjo.jpg,swordfish.jpg,bench01.jpg,mummy.jpg,cupcake.jpg,fishingrod.jpg,stool01.jpg,church.jpg,spicerack.jpg,bowlingball.jpg,musicsheet.jpg,,454.38874450000003,None,454.38874450000003,None,454.38874450000003,None,True,C:\Users\Employee\Google Drive\UP\MyResearch\TaskProgramming\AB_pic\resources\fishingrod.jpg,C:\Users\Employee\Google Drive\UP\MyResearch\TaskProgramming\AB_pic\resources\musicsheet.jpg,458.15560210007243,None,458.15560210007243,None,left,0.596493300050497,458.15560210007243,None,C:\Users\Employee\Google Drive\UP\MyResearch\TaskProgramming\AB_pic\resources\bowlingball.jpg,C:\Users\Employee\Google Drive\UP\MyResearch\TaskProgramming\AB_pic\resources\mailbox02.jpg,458.78888830007054,None,458.78888830007054,None,left,0.4750925999833271,458.78888830007054,None,459.2889002400334,None,None,459.2889002400334,None,,,001,2021_Mar_15_1408,AB_pic,2020.2.10,60.00621663549489,
AB,lag7,7,4,11,0.05,0.2,0,93,93,132,bowlingball.jpg,moon.jpg,snowshovel.jpg,sink.jpg,church.jpg,musicsheet.jpg,jellybean.jpg,swordfish.jpg,pig.jpg,stool01.jpg,bench01.jpg,footballhelmet.jpg,showerhead01.jpg,cruiseship.jpg,daddylonglegs.jpg,christmaslights.jpg,dandelion.jpg,13,459.30552589998115,None,459.30552589998115,None,459.30552589998115,None,False,C:\Users\Employee\Google Drive\UP\MyResearch\TaskProgramming\AB_pic\resources\dandelion.jpg,C:\Users\Employee\Google Drive\UP\MyResearch\TaskProgramming\AB_pic\resources\bench01.jpg,462.8053509000456,None,462.8053509000456,None,right,0.6586346999974921,462.8053509000456,None,C:\Users\Employee\Google Drive\UP\MyResearch\TaskProgramming\AB_pic\resources\christmaslights.jpg,C:\Users\Employee\Google Drive\UP\MyResearch\TaskProgramming\AB_pic\resources\sink.jpg,463.5052572999848,None,463.5052572999848,None,left,0.4947567000053823,463.5052572999848,None,464.02192894002656,None,None,464.02192894002656,None,,,001,2021_Mar_15_1408,AB_pic,2020.2.10,60.00621663549489,
AB,lag4,4,4,8,0.05,0.2,0,94,94,34,turnstile.jpg,cupcake.jpg,stool01.jpg,noparkingsign.jpg,fishingrod.jpg,chefshat.jpg,bench01.jpg,cobra.jpg,cruiseship.jpg,mummy.jpg,sink.jpg,jeans01.jpg,christmaslights.jpg,musicsheet.jpg,snowshovel.jpg,mailbox02.jpg,bowlingball.jpg,10,464.0552146000555,None,464.0552146000555,None,464.0552146000555,None,True,C:\Users\Employee\Google Drive\UP\MyResearch\TaskProgramming\AB_pic\resources\cobra.jpg,C:\Users\Employee\Google Drive\UP\MyResearch\TaskProgramming\AB_pic\resources\bowlingball.jpg,466.8217052000109,None,466.8217052000109,None,left,0.5622222000965849,466.8217052000109,None,C:\Users\Employee\Google Drive\UP\MyResearch\TaskProgramming\AB_pic\resources\noparkingsign.jpg,C:\Users\Employee\Google Drive\UP\MyResearch\TaskProgramming\AB_pic\resources\mailbox02.jpg,467.4216924000066,None,467.4216924000066,None,right,0.3622358998982236,467.4216924000066,None,467.8049929399858,None,None,467.8049929399858,None,,,001,2021_Mar_15_1408,AB_pic,2020.2.10,60.00621663549489,
AB,lag3,3,3,6,0.05,0.2,0,95,95,133,musicsheet.jpg,leafblower01.jpg,jeans01.jpg,fishingrod.jpg,noparkingsign.jpg,chefshat.jpg,showerhead01.jpg,trampoline.jpg,magneticcompass.jpg,cobra.jpg,cupcake.jpg,statue.jpg,sink.jpg,swordfish.jpg,mailbox02.jpg,snowshovel.jpg,crab01.jpg,8,467.8216494000517,None,467.8216494000517,None,467.8216494000517,None,True,C:\Users\Employee\Google Drive\UP\MyResearch\TaskProgramming\AB_pic\resources\chefshat.jpg,C:\Users\Employee\Google Drive\UP\MyResearch\TaskProgramming\AB_pic\resources\crab01.jpg,470.08816679997835,None,470.08816679997835,None,left,0.5677747000008821,470.08816679997835,None,C:\Users\Employee\Google Drive\UP\MyResearch\TaskProgramming\AB_pic\resources\jeans01.jpg,C:\Users\Employee\Google Drive\UP\MyResearch\TaskProgramming\AB_pic\resources\snowshovel.jpg,470.68812810000964,None,470.68812810000964,None,right,0.383897399995476,470.68812810000964,None,471.0881439400255,None,None,471.0881439400255,None,,,001,2021_Mar_15_1408,AB_pic,2020.2.10,60.00621663549489,
AB,lag7,7,4,11,0.05,0.2,0,96,96,119,crab01.jpg,leafblower01.jpg,mailbox02.jpg,noparkingsign.jpg,jellybean.jpg,chefshat.jpg,trampoline.jpg,christmaslights.jpg,bench01.jpg,daddylonglegs.jpg,turnstile.jpg,cobra.jpg,stool01.jpg,eiffeltower.jpg,bowlingball.jpg,banjo.jpg,treadmill.jpg,13,471.12143080006354,None,471.12143080006354,None,471.12143080006354,None,True,C:\Users\Employee\Google Drive\UP\MyResearch\TaskProgramming\AB_pic\resources\turnstile.jpg,C:\Users\Employee\Google Drive\UP\MyResearch\TaskProgramming\AB_pic\resources\treadmill.jpg,474.6212082999991,None,474.6212082999991,None,left,0.7548720999620855,474.6212082999991,None,C:\Users\Employee\Google Drive\UP\MyResearch\TaskProgramming\AB_pic\resources\banjo.jpg,C:\Users\Employee\Google Drive\UP\MyResearch\TaskProgramming\AB_pic\resources\noparkingsign.jpg,475.42072479997296,None,475.42072479997296,None,left,0.4192798000294715,475.42072479997296,None,475.87070293998113,None,None,475.87070293998113,None,,,001,2021_Mar_15_1408,AB_pic,2020.2.10,60.00621663549489,
AB,lag2,2,5,7,0.05,0.2,0,97,97,90,crab01.jpg,dandelion.jpg,treadmill.jpg,mailbox02.jpg,pig.jpg,doghouse.jpg,showerhead01.jpg,mummy.jpg,banjo.jpg,cupcake.jpg,cruiseship.jpg,stool01.jpg,eiffeltower.jpg,footballhelmet.jpg,bench01.jpg,jellyfish.jpg,moon.jpg,9,475.88734890008345,None,475.88734890008345,None,475.88734890008345,None,False,C:\Users\Employee\Google Drive\UP\MyResearch\TaskProgramming\AB_pic\resources\moon.jpg,C:\Users\Employee\Google Drive\UP\MyResearch\TaskProgramming\AB_pic\resources\showerhead01.jpg,478.42095410008915,None,478.42095410008915,None,right,0.6269717999966815,478.42095410008915,None,C:\Users\Employee\Google Drive\UP\MyResearch\TaskProgramming\AB_pic\resources\jellyfish.jpg,C:\Users\Employee\Google Drive\UP\MyResearch\TaskProgramming\AB_pic\resources\pig.jpg,479.08760540001094,None,479.08760540001094,None,right,0.8563272999599576,479.08760540001094,None,479.97044144006213,None,None,479.97044144006213,None,,,001,2021_Mar_15_1408,AB_pic,2020.2.10,60.00621663549489,
