trialType,cndTyp,lag,T1_loc,T2_loc,stimLen,isi,trials.thisRepN,trials.thisTrialN,trials.thisN,trials.thisIndex,img0,img1,img2,img3,img4,img5,img6,img7,img8,img9,img10,img11,img12,img13,img14,img15,img16,lastPresent,polygon.started,polygon.stopped,polygon_3.started,polygon_3.stopped,displayPicture.started,displayPicture.stopped,polygon_2.started,polygon_2.stopped,flipper,opt1_t1,opt2_t1,option1_t1.started,option1_t1.stopped,option2_t1.started,option2_t1.stopped,key_resp.keys,key_resp.rt,key_resp.started,key_resp.stopped,opt1_t2,opt2_t2,option1_t2.started,option1_t2.stopped,option2_t2.started,option2_t2.stopped,key_resp_2.keys,key_resp_2.rt,key_resp_2.started,key_resp_2.stopped,text.started,text.stopped,key_resp_3.keys,key_resp_3.started,key_resp_3.stopped,participant,session,date,expName,psychopyVersion,frameRate,
AB,lag2,2,4,6,0.2,0.05,0,0,0,129,shower.jpg,microwave.jpg,makiroll.jpg,donut.jpg,trophy01.jpg,windshieldwiper02.jpg,licenseplate.jpg,knee.jpg,eyepatch.jpg,helicopter.jpg,zebra.jpg,parachute.jpg,hammerheadshark.jpg,cactus.jpg,punchingbag.jpg,handcuffs.jpg,sledgehammer.jpg,8,6.814729899982922,None,6.814729899982922,None,6.814729899982922,None,6.814729899982922,None,False,C:\Users\Employee\Google Drive\UP\MyResearch\TaskProgramming\AB_pic\resources\handcuffs.jpg,C:\Users\Employee\Google Drive\UP\MyResearch\TaskProgramming\AB_pic\resources\donut.jpg,8.99970290006604,None,8.99970290006604,None,right,0.639844199991785,8.99970290006604,None,C:\Users\Employee\Google Drive\UP\MyResearch\TaskProgramming\AB_pic\resources\windshieldwiper02.jpg,C:\Users\Employee\Google Drive\UP\MyResearch\TaskProgramming\AB_pic\resources\sledgehammer.jpg,9.682945200009272,None,9.682945200009272,None,right,0.5887634999817237,9.682945200009272,None,10.299244959978386,None,None,10.299244959978386,None,,001,2021_Mar_15_1502,AB_pic,2020.2.10,60.002868144966236,
AB,lag1,1,4,5,0.2,0.05,0,1,1,144,sausage.jpg,knee.jpg,cactus.jpg,handcuffs.jpg,pig.jpg,trophy01.jpg,barrel01.jpg,eiffeltower.jpg,zebra.jpg,donut.jpg,windshieldwiper02.jpg,punchingbag.jpg,raccoon.jpg,leafrake.jpg,fingerprint.jpg,sledgehammer.jpg,saxophone.jpg,7,10.315857600071467,None,10.315857600071467,None,10.315857600071467,None,10.315857600071467,None,False,C:\Users\Employee\Google Drive\UP\MyResearch\TaskProgramming\AB_pic\resources\sledgehammer.jpg,C:\Users\Employee\Google Drive\UP\MyResearch\TaskProgramming\AB_pic\resources\handcuffs.jpg,12.315753899980336,None,12.315753899980336,None,right,0.5638315000105649,12.315753899980336,None,C:\Users\Employee\Google Drive\UP\MyResearch\TaskProgramming\AB_pic\resources\saxophone.jpg,C:\Users\Employee\Google Drive\UP\MyResearch\TaskProgramming\AB_pic\resources\pig.jpg,12.915724800084718,None,12.915724800084718,None,left,0.34786740003619343,12.915724800084718,None,13.282347960071638,None,None,13.282347960071638,None,,001,2021_Mar_15_1502,AB_pic,2020.2.10,60.002868144966236,
AB,lag1,1,5,6,0.2,0.05,0,2,2,109,microwave.jpg,saxophone.jpg,marble.jpg,statue.jpg,pig.jpg,sledgehammer.jpg,firehydrant.jpg,helicopter.jpg,waterfountain02.jpg,dreamcatcher.jpg,skunk.jpg,moose.jpg,raccoon.jpg,barrel01.jpg,makiroll.jpg,funnel.jpg,parachute.jpg,8,13.299037300050259,None,13.299037300050259,None,13.299037300050259,None,13.299037300050259,None,False,C:\Users\Employee\Google Drive\UP\MyResearch\TaskProgramming\AB_pic\resources\funnel.jpg,C:\Users\Employee\Google Drive\UP\MyResearch\TaskProgramming\AB_pic\resources\pig.jpg,15.548883400042541,None,15.548883400042541,None,right,0.5386749000754207,15.548883400042541,None,C:\Users\Employee\Google Drive\UP\MyResearch\TaskProgramming\AB_pic\resources\parachute.jpg,C:\Users\Employee\Google Drive\UP\MyResearch\TaskProgramming\AB_pic\resources\sledgehammer.jpg,16.132191500044428,None,16.132191500044428,None,left,0.2833651000401005,16.132191500044428,None,16.432192560075784,None,None,16.432192560075784,None,,001,2021_Mar_15_1502,AB_pic,2020.2.10,60.002868144966236,
AB,lag2,2,3,5,0.2,0.05,0,3,3,57,parachute.jpg,eyepatch.jpg,sausage.jpg,licenseplate.jpg,firehydrant.jpg,waterfountain02.jpg,windshieldwiper02.jpg,fishskeleton.jpg,punchingbag.jpg,cactus.jpg,sledgehammer.jpg,microwave.jpg,triangle.jpg,eiffeltower.jpg,fingerprint.jpg,dreamcatcher.jpg,shower.jpg,7,16.448843199992552,None,16.448843199992552,None,16.448843199992552,None,16.448843199992552,None,False,C:\Users\Employee\Google Drive\UP\MyResearch\TaskProgramming\AB_pic\resources\dreamcatcher.jpg,C:\Users\Employee\Google Drive\UP\MyResearch\TaskProgramming\AB_pic\resources\sausage.jpg,18.46535930002574,None,18.46535930002574,None,right,0.4942714999197051,18.46535930002574,None,C:\Users\Employee\Google Drive\UP\MyResearch\TaskProgramming\AB_pic\resources\firehydrant.jpg,C:\Users\Employee\Google Drive\UP\MyResearch\TaskProgramming\AB_pic\resources\shower.jpg,18.99867030000314,None,18.99867030000314,None,left,0.3370184999657795,18.99867030000314,None,19.36532295998186,None,None,19.36532295998186,None,,001,2021_Mar_15_1502,AB_pic,2020.2.10,60.002868144966236,
AB,lag1,1,4,5,0.2,0.05,0,4,4,24,shower.jpg,helicopter.jpg,firehydrant.jpg,punchingbag.jpg,hammerheadshark.jpg,triangle.jpg,barrel01.jpg,waterfountain02.jpg,dreamcatcher.jpg,donut.jpg,zebra.jpg,skunk.jpg,makiroll.jpg,fishskeleton.jpg,parachute.jpg,statue.jpg,microwave.jpg,7,19.381968400091864,None,19.381968400091864,None,19.381968400091864,None,19.381968400091864,None,False,C:\Users\Employee\Google Drive\UP\MyResearch\TaskProgramming\AB_pic\resources\punchingbag.jpg,C:\Users\Employee\Google Drive\UP\MyResearch\TaskProgramming\AB_pic\resources\statue.jpg,21.398513399995863,None,21.398513399995863,None,left,0.6810497000114992,21.398513399995863,None,C:\Users\Employee\Google Drive\UP\MyResearch\TaskProgramming\AB_pic\resources\microwave.jpg,C:\Users\Employee\Google Drive\UP\MyResearch\TaskProgramming\AB_pic\resources\hammerheadshark.jpg,22.098456000094302,None,22.098456000094302,None,right,0.6851358000421897,22.098456000094302,None,22.81509985998273,None,None,22.81509985998273,None,,001,2021_Mar_15_1502,AB_pic,2020.2.10,60.002868144966236,
AB,lag3,3,3,6,0.2,0.05,0,5,5,108,trophy01.jpg,barrel01.jpg,fishskeleton.jpg,windshieldwiper02.jpg,donut.jpg,knee.jpg,zebra.jpg,waterfountain02.jpg,skunk.jpg,pig.jpg,dragonfly01.jpg,funnel.jpg,microwave.jpg,licenseplate.jpg,badmintonracket.jpg,sausage.jpg,sledgehammer.jpg,8,22.831744100083597,None,22.831744100083597,None,22.831744100083597,None,22.831744100083597,None,False,C:\Users\Employee\Google Drive\UP\MyResearch\TaskProgramming\AB_pic\resources\sausage.jpg,C:\Users\Employee\Google Drive\UP\MyResearch\TaskProgramming\AB_pic\resources\fishskeleton.jpg,25.081631200038828,None,25.081631200038828,None,right,0.49393640004564077,25.081631200038828,None,C:\Users\Employee\Google Drive\UP\MyResearch\TaskProgramming\AB_pic\resources\sledgehammer.jpg,C:\Users\Employee\Google Drive\UP\MyResearch\TaskProgramming\AB_pic\resources\knee.jpg,25.614893799996935,None,25.614893799996935,None,left,0.408786499989219,25.614893799996935,None,26.048212360031904,None,None,26.048212360031904,None,,001,2021_Mar_15_1502,AB_pic,2020.2.10,60.002868144966236,
AB,lag4,4,3,7,0.2,0.05,0,6,6,142,barrel01.jpg,whiteout.jpg,sledgehammer.jpg,funnel.jpg,hammerheadshark.jpg,saxophone.jpg,fingerprint.jpg,raccoon.jpg,shower.jpg,badmintonracket.jpg,statue.jpg,steeringwheel.jpg,windshieldwiper02.jpg,skunk.jpg,knee.jpg,trophy01.jpg,triangle.jpg,9,26.06486689997837,None,26.06486689997837,None,26.06486689997837,None,26.06486689997837,None,False,C:\Users\Employee\Google Drive\UP\MyResearch\TaskProgramming\AB_pic\resources\trophy01.jpg,C:\Users\Employee\Google Drive\UP\MyResearch\TaskProgramming\AB_pic\resources\sledgehammer.jpg,28.564701600000262,None,28.564701600000262,None,right,0.6989164999686182,28.564701600000262,None,C:\Users\Employee\Google Drive\UP\MyResearch\TaskProgramming\AB_pic\resources\fingerprint.jpg,C:\Users\Employee\Google Drive\UP\MyResearch\TaskProgramming\AB_pic\resources\triangle.jpg,29.29798849998042,None,29.29798849998042,None,right,0.4455603000242263,29.29798849998042,None,29.764650160004386,None,None,29.764650160004386,None,,001,2021_Mar_15_1502,AB_pic,2020.2.10,60.002868144966236,
AB,lag3,3,3,6,0.2,0.05,0,7,7,106,whiteout.jpg,pig.jpg,handcuffs.jpg,sledgehammer.jpg,donut.jpg,leafrake.jpg,raccoon.jpg,moose.jpg,microwave.jpg,waterfountain02.jpg,punchingbag.jpg,triangle.jpg,funnel.jpg,firehydrant.jpg,cactus.jpg,fishskeleton.jpg,trophy01.jpg,8,29.78129930002615,None,29.78129930002615,None,29.78129930002615,None,29.78129930002615,None,False,C:\Users\Employee\Google Drive\UP\MyResearch\TaskProgramming\AB_pic\resources\fishskeleton.jpg,C:\Users\Employee\Google Drive\UP\MyResearch\TaskProgramming\AB_pic\resources\handcuffs.jpg,32.03113790007774,None,32.03113790007774,None,right,0.5284383000107482,32.03113790007774,None,C:\Users\Employee\Google Drive\UP\MyResearch\TaskProgramming\AB_pic\resources\leafrake.jpg,C:\Users\Employee\Google Drive\UP\MyResearch\TaskProgramming\AB_pic\resources\trophy01.jpg,32.597770099993795,None,32.597770099993795,None,right,0.6899601999903098,32.597770099993795,None,33.31441006008536,None,None,33.31441006008536,None,,001,2021_Mar_15_1502,AB_pic,2020.2.10,60.002868144966236,
AB,lag6,6,5,11,0.2,0.05,0,8,8,27,knee.jpg,whiteout.jpg,steeringwheel.jpg,sledgehammer.jpg,eiffeltower.jpg,licenseplate.jpg,fishskeleton.jpg,fingerprint.jpg,triangle.jpg,microwave.jpg,donut.jpg,firehydrant.jpg,helicopter.jpg,raccoon.jpg,barrel01.jpg,funnel.jpg,sausage.jpg,13,33.33106160000898,None,33.33106160000898,None,33.33106160000898,None,33.33106160000898,None,False,C:\Users\Employee\Google Drive\UP\MyResearch\TaskProgramming\AB_pic\resources\eiffeltower.jpg,C:\Users\Employee\Google Drive\UP\MyResearch\TaskProgramming\AB_pic\resources\funnel.jpg,36.81418059999123,None,36.81418059999123,None,left,0.545488900039345,36.81418059999123,None,C:\Users\Employee\Google Drive\UP\MyResearch\TaskProgramming\AB_pic\resources\sausage.jpg,C:\Users\Employee\Google Drive\UP\MyResearch\TaskProgramming\AB_pic\resources\donut.jpg,37.397479200037196,None,37.397479200037196,None,left,0.46621280000545084,37.397479200037196,None,37.880792460078375,None,None,37.880792460078375,None,,001,2021_Mar_15_1502,AB_pic,2020.2.10,60.002868144966236,
AB,lag3,3,5,8,0.2,0.05,0,9,9,54,fishskeleton.jpg,statue.jpg,firehydrant.jpg,eiffeltower.jpg,dragonfly01.jpg,cactus.jpg,handcuffs.jpg,makiroll.jpg,dreamcatcher.jpg,marble.jpg,skunk.jpg,leafrake.jpg,waterfountain02.jpg,donut.jpg,helicopter.jpg,sausage.jpg,shower.jpg,10,37.89742599998135,None,37.89742599998135,None,37.89742599998135,None,37.89742599998135,None,False,C:\Users\Employee\Google Drive\UP\MyResearch\TaskProgramming\AB_pic\resources\sausage.jpg,C:\Users\Employee\Google Drive\UP\MyResearch\TaskProgramming\AB_pic\resources\dragonfly01.jpg,40.64723690005485,None,40.64723690005485,None,right,0.5043724999995902,40.64723690005485,None,C:\Users\Employee\Google Drive\UP\MyResearch\TaskProgramming\AB_pic\resources\makiroll.jpg,C:\Users\Employee\Google Drive\UP\MyResearch\TaskProgramming\AB_pic\resources\shower.jpg,41.19721280003432,None,41.19721280003432,None,right,0.45044830010738224,41.19721280003432,None,41.66384496006649,None,None,41.66384496006649,None,,001,2021_Mar_15_1502,AB_pic,2020.2.10,60.002868144966236,
AB,lag1,1,5,6,0.2,0.05,0,10,10,84,pig.jpg,hammerheadshark.jpg,skunk.jpg,dragonfly01.jpg,donut.jpg,saxophone.jpg,statue.jpg,zebra.jpg,sausage.jpg,punchingbag.jpg,makiroll.jpg,barrel01.jpg,knee.jpg,shower.jpg,microwave.jpg,waterfountain02.jpg,fingerprint.jpg,8,41.68055709998589,None,41.68055709998589,None,41.68055709998589,None,41.68055709998589,None,False,C:\Users\Employee\Google Drive\UP\MyResearch\TaskProgramming\AB_pic\resources\donut.jpg,C:\Users\Employee\Google Drive\UP\MyResearch\TaskProgramming\AB_pic\resources\waterfountain02.jpg,43.91367490007542,None,43.91367490007542,None,left,0.5100793000310659,43.91367490007542,None,C:\Users\Employee\Google Drive\UP\MyResearch\TaskProgramming\AB_pic\resources\saxophone.jpg,C:\Users\Employee\Google Drive\UP\MyResearch\TaskProgramming\AB_pic\resources\fingerprint.jpg,44.463639600086026,None,44.463639600086026,None,right,0.3279898000182584,44.463639600086026,None,44.813667860021816,None,None,44.813667860021816,None,,001,2021_Mar_15_1502,AB_pic,2020.2.10,60.002868144966236,
AB,lag1,1,3,4,0.2,0.05,0,11,11,155,makiroll.jpg,badmintonracket.jpg,microwave.jpg,triangle.jpg,waterfountain02.jpg,handcuffs.jpg,statue.jpg,firehydrant.jpg,saxophone.jpg,marble.jpg,pig.jpg,whiteout.jpg,leafrake.jpg,donut.jpg,eyepatch.jpg,licenseplate.jpg,fishskeleton.jpg,6,44.830294399987906,None,44.830294399987906,None,44.830294399987906,None,44.830294399987906,None,False,C:\Users\Employee\Google Drive\UP\MyResearch\TaskProgramming\AB_pic\resources\licenseplate.jpg,C:\Users\Employee\Google Drive\UP\MyResearch\TaskProgramming\AB_pic\resources\microwave.jpg,46.56350280006882,None,46.56350280006882,None,right,0.5081758999731392,46.56350280006882,None,C:\Users\Employee\Google Drive\UP\MyResearch\TaskProgramming\AB_pic\resources\triangle.jpg,C:\Users\Employee\Google Drive\UP\MyResearch\TaskProgramming\AB_pic\resources\fishskeleton.jpg,47.11347049998585,None,47.11347049998585,None,left,0.2701694000279531,47.11347049998585,None,47.413471360015684,None,None,47.413471360015684,None,,001,2021_Mar_15_1502,AB_pic,2020.2.10,60.002868144966236,
AB,lag2,2,3,5,0.2,0.05,0,12,12,113,firehydrant.jpg,accordion01.jpg,statue.jpg,donut.jpg,helicopter.jpg,saxophone.jpg,zebra.jpg,funnel.jpg,hammerheadshark.jpg,punchingbag.jpg,microwave.jpg,fishskeleton.jpg,raccoon.jpg,triangle.jpg,badmintonracket.jpg,knee.jpg,dreamcatcher.jpg,7,47.43011080008,None,47.43011080008,None,47.43011080008,None,47.43011080008,None,False,C:\Users\Employee\Google Drive\UP\MyResearch\TaskProgramming\AB_pic\resources\statue.jpg,C:\Users\Employee\Google Drive\UP\MyResearch\TaskProgramming\AB_pic\resources\knee.jpg,49.41332000005059,None,49.41332000005059,None,right,1.098424700088799,49.41332000005059,None,C:\Users\Employee\Google Drive\UP\MyResearch\TaskProgramming\AB_pic\resources\dreamcatcher.jpg,C:\Users\Employee\Google Drive\UP\MyResearch\TaskProgramming\AB_pic\resources\helicopter.jpg,50.546602300019,None,50.546602300019,None,right,0.5089896999998018,50.546602300019,None,51.07987836005632,None,None,51.07987836005632,None,,001,2021_Mar_15_1502,AB_pic,2020.2.10,60.002868144966236,
AB,lag1,1,5,6,0.2,0.05,0,13,13,83,triangle.jpg,windshieldwiper02.jpg,microwave.jpg,waterfountain02.jpg,funnel.jpg,trophy01.jpg,dragonfly01.jpg,handcuffs.jpg,helicopter.jpg,steeringwheel.jpg,eiffeltower.jpg,donut.jpg,pig.jpg,fingerprint.jpg,marble.jpg,hammerheadshark.jpg,badmintonracket.jpg,8,51.09655340004247,None,51.09655340004247,None,51.09655340004247,None,51.09655340004247,None,False,C:\Users\Employee\Google Drive\UP\MyResearch\TaskProgramming\AB_pic\resources\funnel.jpg,C:\Users\Employee\Google Drive\UP\MyResearch\TaskProgramming\AB_pic\resources\hammerheadshark.jpg,53.363088999991305,None,53.363088999991305,None,left,0.5005571999354288,53.363088999991305,None,C:\Users\Employee\Google Drive\UP\MyResearch\TaskProgramming\AB_pic\resources\trophy01.jpg,C:\Users\Employee\Google Drive\UP\MyResearch\TaskProgramming\AB_pic\resources\badmintonracket.jpg,53.89639060001355,None,53.89639060001355,None,right,0.9192156000062823,53.89639060001355,None,54.84634306004737,None,None,54.84634306004737,None,,001,2021_Mar_15_1502,AB_pic,2020.2.10,60.002868144966236,
AB,lag6,6,4,10,0.2,0.05,0,14,14,86,eiffeltower.jpg,barrel01.jpg,parachute.jpg,fishskeleton.jpg,zebra.jpg,handcuffs.jpg,sausage.jpg,leafrake.jpg,whiteout.jpg,funnel.jpg,skunk.jpg,saxophone.jpg,shower.jpg,windshieldwiper02.jpg,sledgehammer.jpg,trophy01.jpg,steeringwheel.jpg,12,54.86299589998089,None,54.86299589998089,None,54.86299589998089,None,54.86299589998089,None,False,C:\Users\Employee\Google Drive\UP\MyResearch\TaskProgramming\AB_pic\resources\fishskeleton.jpg,C:\Users\Employee\Google Drive\UP\MyResearch\TaskProgramming\AB_pic\resources\trophy01.jpg,58.11280730005819,None,58.11280730005819,None,left,0.8387840000214055,58.11280730005819,None,C:\Users\Employee\Google Drive\UP\MyResearch\TaskProgramming\AB_pic\resources\funnel.jpg,C:\Users\Employee\Google Drive\UP\MyResearch\TaskProgramming\AB_pic\resources\steeringwheel.jpg,58.9793895999901,None,58.9793895999901,None,right,1.900211300002411,58.9793895999901,None,60.895968660037035,None,None,60.895968660037035,None,,001,2021_Mar_15_1502,AB_pic,2020.2.10,60.002868144966236,
AB,lag4,4,4,8,0.2,0.05,0,15,15,11,barrel01.jpg,steeringwheel.jpg,handcuffs.jpg,whiteout.jpg,trophy01.jpg,donut.jpg,licenseplate.jpg,eiffeltower.jpg,dragonfly01.jpg,fishskeleton.jpg,fingerprint.jpg,triangle.jpg,punchingbag.jpg,waterfountain02.jpg,shower.jpg,eyepatch.jpg,pig.jpg,10,60.912600800045766,None,60.912600800045766,None,60.912600800045766,None,60.912600800045766,None,False,C:\Users\Employee\Google Drive\UP\MyResearch\TaskProgramming\AB_pic\resources\eyepatch.jpg,C:\Users\Employee\Google Drive\UP\MyResearch\TaskProgramming\AB_pic\resources\whiteout.jpg,63.67908360005822,None,63.67908360005822,None,right,0.6245779000455514,63.67908360005822,None,C:\Users\Employee\Google Drive\UP\MyResearch\TaskProgramming\AB_pic\resources\eiffeltower.jpg,C:\Users\Employee\Google Drive\UP\MyResearch\TaskProgramming\AB_pic\resources\pig.jpg,64.34571880009025,None,64.34571880009025,None,right,0.46995779999997467,64.34571880009025,None,64.84568936007562,None,None,64.84568936007562,None,,001,2021_Mar_15_1502,AB_pic,2020.2.10,60.002868144966236,
AB,lag6,6,5,11,0.2,0.05,0,16,16,45,zebra.jpg,fishskeleton.jpg,licenseplate.jpg,handcuffs.jpg,raccoon.jpg,eyepatch.jpg,steeringwheel.jpg,barrel01.jpg,cactus.jpg,accordion01.jpg,waterfountain02.jpg,hammerheadshark.jpg,sausage.jpg,marble.jpg,skunk.jpg,trophy01.jpg,funnel.jpg,13,64.8623386999825,None,64.8623386999825,None,64.8623386999825,None,64.8623386999825,None,False,C:\Users\Employee\Google Drive\UP\MyResearch\TaskProgramming\AB_pic\resources\raccoon.jpg,C:\Users\Employee\Google Drive\UP\MyResearch\TaskProgramming\AB_pic\resources\trophy01.jpg,68.36213370005134,None,68.36213370005134,None,left,1.917571400059387,68.36213370005134,None,C:\Users\Employee\Google Drive\UP\MyResearch\TaskProgramming\AB_pic\resources\funnel.jpg,C:\Users\Employee\Google Drive\UP\MyResearch\TaskProgramming\AB_pic\resources\waterfountain02.jpg,70.31198560004123,None,70.31198560004123,None,left,0.6797743000788614,70.31198560004123,None,71.01197115997783,None,None,71.01197115997783,None,,001,2021_Mar_15_1502,AB_pic,2020.2.10,60.002868144966236,
AB,lag7,7,5,12,0.2,0.05,0,17,17,159,windshieldwiper02.jpg,accordion01.jpg,fingerprint.jpg,knee.jpg,fishskeleton.jpg,sausage.jpg,triangle.jpg,trophy01.jpg,shower.jpg,statue.jpg,parachute.jpg,pig.jpg,sledgehammer.jpg,punchingbag.jpg,dreamcatcher.jpg,eiffeltower.jpg,marble.jpg,,71.02860319998581,None,71.02860319998581,None,71.02860319998581,None,71.02860319998581,None,False,C:\Users\Employee\Google Drive\UP\MyResearch\TaskProgramming\AB_pic\resources\eiffeltower.jpg,C:\Users\Employee\Google Drive\UP\MyResearch\TaskProgramming\AB_pic\resources\fishskeleton.jpg,74.79503070004284,None,74.79503070004284,None,right,0.8845697999931872,74.79503070004284,None,C:\Users\Employee\Google Drive\UP\MyResearch\TaskProgramming\AB_pic\resources\marble.jpg,C:\Users\Employee\Google Drive\UP\MyResearch\TaskProgramming\AB_pic\resources\pig.jpg,75.71163690008689,None,75.71163690008689,None,left,0.320192200015299,75.71163690008689,None,76.06164535998832,None,None,76.06164535998832,None,,001,2021_Mar_15_1502,AB_pic,2020.2.10,60.002868144966236,
,,,,,,,,,,,windshieldwiper02.jpg,donut.jpg,trophy01.jpg,raccoon.jpg,dragonfly01.jpg,marble.jpg,hammerheadshark.jpg,sledgehammer.jpg,triangle.jpg,punchingbag.jpg,badmintonracket.jpg,fingerprint.jpg,parachute.jpg,moose.jpg,makiroll.jpg,accordion01.jpg,leafrake.jpg,,,,,,,,,,,,,,,,,,,,,,,,,,,,,,,,,,,,,,,,,,
