trialType,cndTyp,lag,T1_loc,T2_loc,stimLen,isi,skipProb,phase,trials.thisRepN,trials.thisTrialN,trials.thisN,trials.thisIndex,trials2.thisRepN,trials2.thisTrialN,trials2.thisN,trials2.thisIndex,text_3.started,text_3.stopped,key_resp_4.keys,key_resp_4.rt,key_resp_4.started,key_resp_4.stopped,img0,img1,img2,img3,img4,img5,img6,img7,img8,img9,img10,img11,img12,img13,img14,img15,img16,option1.started,option1.stopped,text_2.started,text_2.stopped,skip1,skip2,lastPresent,displayPicture.started,displayPicture.stopped,polygon_2.started,polygon_2.stopped,opt1_t1,polygon_4.started,polygon_4.stopped,cor1,option1_t1.started,option1_t1.stopped,key_resp.keys,key_resp.rt,key_resp.started,key_resp.stopped,polygon_5.started,polygon_5.stopped,text_6.started,text_6.stopped,cor2,key_resp_2.keys,key_resp_2.rt,key_resp_2.started,key_resp_2.stopped,feedbackText.started,feedbackText.stopped,text.started,text.stopped,key_resp_3.keys,key_resp_3.started,key_resp_3.stopped,text_4.started,text_4.stopped,key_resp_7.keys,key_resp_7.rt,key_resp_7.started,key_resp_7.stopped,option1_3.started,option1_3.stopped,text_7.started,text_7.stopped,curStimTim,displayPicture_4.started,displayPicture_4.stopped,polygon_16.started,polygon_16.stopped,polygon_7.started,polygon_7.stopped,option1_t1_2.started,option1_t1_2.stopped,key_resp_6.keys,key_resp_6.rt,key_resp_6.started,key_resp_6.stopped,polygon_17.started,polygon_17.stopped,text_8.started,text_8.stopped,key_resp_8.keys,key_resp_8.rt,key_resp_8.started,key_resp_8.stopped,B0,B1,participant,session,date,expName,psychopyVersion,frameRate,
,,,,,,,,,,,,,,,,,14.47726490002242,None,space,1.36956600000849,14.47726490002242,None,,,,,,,,,,,,,,,,,,,,,,,,,,,,,,,,,,,,,,,,,,,,,,,,,,,,,,,,,,,,,,,,,,,,,,,,,,,,,,,,,,,,,,,,,001,2021_Mar_24_1048,AB_pic_singleT2,2020.2.10,59.91748164024009,
AB,lag6,6,5,11,0.2,0.05,0.5,,0,0,0,0,,,,,,,,,,,humanskeleton.jpg,dandelion.jpg,basketball01.jpg,chainsaw.jpg,cobra.jpg,bow.jpg,fridge.jpg,motorcycle.jpg,electrictoothbrush01c.jpg,urinal.jpg,mattress.jpg,key07.jpg,windshieldwiper02.jpg,saxophone.jpg,redfox.jpg,chair.jpg,kite.jpg,15.909933100017952,18.670840000006137,18.4081118000031,None,1,1,13,18.96433360001538,None,18.96433360001538,None,.\resources\mattress.jpg,22.467525800020667,None,1,22.467525800020667,None,left,0.36334810001426376,22.467525800020667,None,22.870336400024826,None,22.870336400024826,None,1,left,0.16852059998200275,22.870336400024826,None,23.09437980002258,None,24.082438569999066,None,None,24.082438569999066,None,,,,,,,,,,,,,,,,,,,,,,,,,,,,,,,,,,,001,2021_Mar_24_1048,AB_pic_singleT2,2020.2.10,59.91748164024009,
,,,,,,,,,,,,,,,,,,,,,,,,,,,,,,,,,,,,,,,,,,,,,,,,,,,,,,,,,,,,,,,,,,,,,,,,,,,,,24.086703500011936,None,space,0.7901801000116393,24.086703500011936,None,,,,,,,,,,,,,,,,,,,,,,,,,,,,,001,2021_Mar_24_1048,AB_pic_singleT2,2020.2.10,59.91748164024009,
AB,lag6,6,5,11,0.2,0.05,0.5,ramp,,,,,0,0,0,0,,,,,,,flag.jpg,candycane01a.jpg,hockeypuck.jpg,helicopter.jpg,cruiseship.jpg,wallclock.jpg,steeringwheel.jpg,christmastree.jpg,chimney.jpg,scooter.jpg,whiteout.jpg,microwave.jpg,hulahoop.jpg,motorcycle.jpg,chair.jpg,fingerprint.jpg,skateboard.jpg,,,,,0,1,13,,,,,.\resources\whiteout.jpg,,,1,,,,,,,,,,,1,,,,,,,32.62181066999911,None,None,32.62181066999911,None,,,,,,,24.942921600013506,27.692668900010176,27.42604879999999,None,0.2,27.926077100011753,None,27.926077100011753,None,31.510069900017697,None,31.510069900017697,None,right,0.6248143999837339,31.510069900017697,None,32.190252500004135,None,32.190252500004135,None,left,0.39267289999406785,32.190252500004135,None,,,,001,2021_Mar_24_1048,AB_pic_singleT2,2020.2.10,59.91748164024009,
AB,lag4,4,4,8,0.19066666667,0.048,0.48,ramp,,,,,0,1,1,1,,,,,,,treadmill.jpg,bullet.jpg,saxophone.jpg,sheep.jpg,raccoon.jpg,cheetah.jpg,zebra.jpg,crosscountryski.jpg,nosmokingsign.jpg,musicsheet.jpg,kite.jpg,trampoline.jpg,anchor.jpg,helicopter.jpg,electrictoothbrush01c.jpg,shovel01.jpg,chainsaw.jpg,,,,,0,0,10,,,,,.\resources\crosscountryski.jpg,,,1,,,,,,,,,,,1,,,,,,,38.78387827000115,None,None,38.78387827000115,None,,,,,,,32.637331300007645,35.42464470001869,35.12841620002291,None,0.19066666667,35.664107100019464,None,35.664107100019464,None,38.302453700016486,None,38.302453700016486,None,right,0.27255230001173913,38.302453700016486,None,38.64951960000326,None,38.64951960000326,None,right,0.11734719999367371,38.64951960000326,None,-10.001360791690049,150.0000000424746,,001,2021_Mar_24_1048,AB_pic_singleT2,2020.2.10,59.91748164024009,
AB,lag7,7,4,11,0.18133333334,0.046,0.45999999999999996,ramp,,,,,0,2,2,2,,,,,,,armadillo.jpg,parrot01.jpg,frisbee.jpg,saxophone.jpg,birdnest.jpg,doghouse.jpg,ceilingfan01.jpg,skateboard.jpg,honeybee.jpg,microphone01.jpg,ant.jpg,spicerack.jpg,pig.jpg,statue.jpg,acorn.jpg,pokerchips.jpg,swing.jpg,,,,,0,1,13,,,,,.\resources\ant.jpg,,,1,,,,,,,,,,,1,,,,,,,45.64203077000566,None,None,45.64203077000566,None,,,,,,,38.80011589999776,41.60513800001354,41.27601020000293,None,0.18133333334,41.812794700002996,None,41.812794700002996,None,45.020910100021865,None,45.020910100021865,None,right,0.34594950001337565,45.020910100021865,None,45.44204370002262,None,45.44204370002262,None,left,0.16482299999915995,45.44204370002262,None,-10.002719446389834,150.00000013655824,,001,2021_Mar_24_1048,AB_pic_singleT2,2020.2.10,59.91748164024009,
AB,lag5,5,5,10,0.17200000001000001,0.044,0.43999999999999995,ramp,,,,,0,3,3,3,,,,,,,lizard.jpg,handcuffs.jpg,airhockeytable.jpg,vacuumcleaner01.jpg,car.jpg,trampoline.jpg,pingpongtable.jpg,acorn.jpg,horseshoe.jpg,pigeon.jpg,fishingrod.jpg,ipad02.jpg,chimney.jpg,daddylonglegs.jpg,bullet.jpg,toad.jpg,treadmill.jpg,,,,,0,0,12,,,,,.\resources\pigeon.jpg,,,1,,,,,,,,,,,1,,,,,,,52.0775943700166,None,None,52.0775943700166,None,,,,,,,45.65875670002424,48.40821330001927,48.14142910001101,None,0.17200000001000001,48.658078200009186,None,48.658078200009186,None,51.49246160002076,None,51.49246160002076,None,right,0.354417900001863,51.49246160002076,None,51.93128270001034,None,51.93128270001034,None,right,0.11556540001765825,51.93128270001034,None,-10.004075333761547,150.00000038823157,,001,2021_Mar_24_1048,AB_pic_singleT2,2020.2.10,59.91748164024009,
AB,lag2,2,3,5,0.16266666668000002,0.041999999999999996,0.41999999999999993,ramp,,,,,0,4,4,4,,,,,,,birdhouse.jpg,wheelchair.jpg,jellyfish.jpg,swordfish.jpg,bluejay.jpg,tank.jpg,hockeystick.jpg,marble.jpg,shower.jpg,firehydrant.jpg,parachute.jpg,trampoline.jpg,sausage.jpg,brownsugar.jpg,birthdaycandle.jpg,lighthouse.jpg,leafrake.jpg,,,,,0,1,7,,,,,.\resources\bluejay.jpg,,,1,,,,,,,,,,,1,,,,,,,57.840698369999885,None,None,57.840698369999885,None,,,,,,,52.10282330002519,54.8847087000031,54.59516210001311,None,0.16266666668000002,55.13117000000784,None,55.13117000000784,None,56.77456119999988,None,56.77456119999988,None,right,0.7522755000100005,56.77456119999988,None,57.6077647000202,None,57.6077647000202,None,left,0.2071122000052128,57.6077647000202,None,-10.005426297173447,150.0000011389316,,001,2021_Mar_24_1048,AB_pic_singleT2,2020.2.10,59.91748164024009,
AB,lag3,3,5,8,0.15333333335000002,0.039999999999999994,0.3999999999999999,ramp,,,,,0,5,5,5,,,,,,,jellybean.jpg,helicopter.jpg,englishcucumber.jpg,ostrich.jpg,birdfeeder.jpg,mummy.jpg,football.jpg,tent.jpg,sandcastle.jpg,eye.jpg,floorlamp.jpg,calendar.jpg,smokingpipe.jpg,bullet.jpg,swordfish.jpg,leafblower01.jpg,vacuumcleaner01.jpg,,,,,0,0,10,,,,,.\resources\tent.jpg,,,1,,,,,,,,,,,1,,,,,,,63.57367557000835,None,None,63.57367557000835,None,,,,,,,57.8577678000147,60.607627300021704,60.3243180999998,None,0.15333333335000002,60.8238537000143,None,60.8238537000143,None,62.97417690002476,None,62.97417690002476,None,right,0.3686911999830045,62.97417690002476,None,63.424145800003316,None,63.424145800003316,None,right,0.1266994000179693,63.424145800003316,None,-10.006764806001751,150.00000351094027,,001,2021_Mar_24_1048,AB_pic_singleT2,2020.2.10,59.91748164024009,
AB,lag1,1,4,5,0.14400000002000002,0.03799999999999999,0.3799999999999999,ramp,,,,,0,6,6,6,,,,,,,noparkingsign.jpg,fishskeleton.jpg,fortunecookie.jpg,hockeystick.jpg,pirateflag.jpg,bluejay.jpg,harmonica.jpg,moose.jpg,kite.jpg,kneepad01c.jpg,raccoon.jpg,duck01.jpg,callbell.jpg,dalmatian.jpg,well.jpg,dromedary.jpg,firehydrant.jpg,,,,,0,0,7,,,,,.\resources\pirateflag.jpg,,,1,,,,,,,,,,,1,,,,,,,68.67336957001244,None,None,68.67336957001244,None,,,,,,,63.59075840000878,66.3806811000104,66.08746280000196,None,0.14400000002000002,66.63000640002429,None,66.63000640002429,None,68.09047390002524,None,68.09047390002524,None,right,0.3723799000144936,68.09047390002524,None,68.54044650000287,None,68.54044650000287,None,right,0.10640369998873211,68.54044650000287,None,-10.008064094004647,150.00001124737665,,001,2021_Mar_24_1048,AB_pic_singleT2,2020.2.10,59.91748164024009,
AB,lag6,6,5,11,0.13466666669000002,0.03599999999999999,0.3599999999999999,ramp,,,,,0,7,7,7,,,,,,,zipper.jpg,toyanimal05.jpg,pokerchips.jpg,sword01.jpg,treadmill.jpg,lizard.jpg,armadillo.jpg,masquerademask01.jpg,bluejay.jpg,dormer.jpg,hand01b.jpg,skippingrope.jpg,parkfountain.jpg,lollipop04.jpg,scooter.jpg,cross01.jpg,seagull.jpg,,,,,1,0,13,,,,,.\resources\hand01b.jpg,,,1,,,,,,,,,,,1,,,,,,,74.65632657001261,None,None,74.65632657001261,None,,,,,,,68.6904800000193,71.44021359999897,71.15692670000135,None,0.13466666669000002,71.6564764000068,None,71.6564764000068,None,74.07317680001142,None,74.07317680001142,None,left,0.3416894000256434,74.07317680001142,None,74.49009140001726,None,74.49009140001726,None,right,0.14882370000123046,74.49009140001726,None,-10.009227634136485,150.00003695987715,,001,2021_Mar_24_1048,AB_pic_singleT2,2020.2.10,59.91748164024009,
AB,lag3,3,4,7,0.12533333336000002,0.03399999999999999,0.33999999999999986,ramp,,,,,0,8,8,8,,,,,,,surfboard.jpg,granolabar01.jpg,porcupine.jpg,shower.jpg,duck01.jpg,stool01.jpg,jeep.jpg,peacock.jpg,platypus.jpg,wallclock.jpg,skateboard.jpg,accordion01.jpg,smokingpipe.jpg,soccerball.jpg,fishskeleton.jpg,boat.jpg,seagull.jpg,,,,,1,0,9,,,,,.\resources\jeep.jpg,,,1,,,,,,,,,,,1,,,,,,,80.35599547000602,None,None,80.35599547000602,None,,,,,,,74.67340550001245,77.42319670002325,77.15655390001484,None,0.12533333336000002,77.65612150001107,None,77.65612150001107,None,79.27268840000033,None,79.27268840000033,None,left,0.9341636000026483,79.27268840000033,None,80.27265730002546,None,80.27265730002546,None,right,0.05423749997862615,80.27265730002546,None,-10.009903325668345,150.00012340554508,,001,2021_Mar_24_1048,AB_pic_singleT2,2020.2.10,59.91748164024009,
AB,lag4,4,4,8,0.11600000003000002,0.03199999999999999,0.31999999999999984,ramp,,,,,0,9,9,9,,,,,,,doghouse.jpg,bathtub.jpg,fingerprint.jpg,fishingrod.jpg,dalmatian.jpg,birdhouse.jpg,pingpongtable.jpg,horse.jpg,football.jpg,penguin.jpg,well.jpg,seal.jpg,recyclingbin.jpg,cheetah.jpg,nose.jpg,ostrich.jpg,hand01b.jpg,,,,,0,0,10,,,,,.\resources\horse.jpg,,,1,,,,,,,,,,,1,,,,,,,85.53890507000615,None,None,85.53890507000615,None,,,,,,,80.37262970002485,83.12283950002166,82.8395343000011,None,0.11600000003000002,83.33909800002584,None,83.33909800002584,None,84.98911860000226,None,84.98911860000226,None,right,0.3537536999792792,84.98911860000226,None,85.42239310001605,None,85.42239310001605,None,right,0.08848319997196086,85.42239310001605,None,-10.0087969897031,150.00041576432758,,001,2021_Mar_24_1048,AB_pic_singleT2,2020.2.10,59.91748164024009,
AB,lag5,5,4,9,0.10666666670000002,0.029999999999999985,0.2999999999999998,ramp,,,,,0,10,10,10,,,,,,,jellybean.jpg,totempole.jpg,jackrabbit.jpg,platypus.jpg,bumpercar.jpg,nunchuk.jpg,frenchfries.jpg,chefshat.jpg,snowboard.jpg,trumpet.jpg,crab01.jpg,lollipop04.jpg,masquerademask01.jpg,dartboard.jpg,alligator.jpg,leafblower01.jpg,tricycle.jpg,,,,,0,0,11,,,,,.\resources\snowboard.jpg,,,1,,,,,,,,,,,1,,,,,,,90.70511987000937,None,None,90.70511987000937,None,,,,,,,85.5560289999994,88.30587500002002,88.03913020002074,None,0.10666666670000002,88.53871030002483,None,88.53871030002483,None,90.18840590000036,None,90.18840590000036,None,right,0.31449720001546666,90.18840590000036,None,90.55511510002543,None,90.55511510002543,None,right,0.1317603999923449,90.55511510002543,None,-10.001153334151129,150.00140318068046,,001,2021_Mar_24_1048,AB_pic_singleT2,2020.2.10,59.91748164024009,
AB,lag2,2,3,5,0.09733333337000002,0.027999999999999983,0.3,ramp,,,,,0,11,11,11,,,,,,,cruiseship.jpg,guitarcase.jpg,pirateflag.jpg,snowshovel.jpg,windshieldwiper02.jpg,snowshoe.jpg,chainsaw.jpg,birdfeeder.jpg,mrpotatohead.jpg,drumset.jpg,eyepatch.jpg,football.jpg,escalator.jpg,basketball01.jpg,moon.jpg,recyclingbin.jpg,flag.jpg,,,,,0,0,7,,,,,.\resources\windshieldwiper02.jpg,,,1,,,,,,,,,,,1,,,,,,,95.28811017000699,None,None,95.28811017000699,None,,,,,,,90.70508300000802,93.45510680001462,93.1884710000013,None,0.09733333337000002,93.6884141000046,None,93.6884141000046,None,94.70480690000113,None,94.70480690000113,None,right,0.39007399999536574,94.70480690000113,None,95.1547825000016,None,95.1547825000016,None,right,0.11614490000647493,95.1547825000016,None,-9.969929362530102,150.00467706564078,,001,2021_Mar_24_1048,AB_pic_singleT2,2020.2.10,59.91748164024009,
AB,lag1,1,4,5,0.08800000004000003,0.02599999999999998,0.3,ramp,,,,,0,12,12,12,,,,,,,well.jpg,bull.jpg,tarantula.jpg,musicsheet.jpg,rubikcube.jpg,rollerblade.jpg,tie02.jpg,mailbox02.jpg,sausage.jpg,seagull.jpg,punchingbag.jpg,dolphin01.jpg,birdhouse.jpg,boat.jpg,toyanimal05.jpg,wheelchair.jpg,swordfish.jpg,,,,,0,0,7,,,,,.\resources\rubikcube.jpg,,,1,,,,,,,,,,,1,,,,,,,99.87115427000681,None,None,99.87115427000681,None,,,,,,,95.28810350000276,98.03811990001122,97.77153050000197,None,0.08800000004000003,98.2714378000237,None,98.2714378000237,None,99.18809030001285,None,99.18809030001285,None,right,0.4828481999866199,99.18809030001285,None,99.72113600000739,None,99.72113600000739,None,right,0.12577940002665855,99.72113600000739,None,-9.860203419559875,150.01481140263897,,001,2021_Mar_24_1048,AB_pic_singleT2,2020.2.10,59.91748164024009,
AB,lag7,7,5,12,0.07866666671000003,0.02399999999999998,0.3,ramp,,,,,0,13,13,13,,,,,,,penguin.jpg,crab01.jpg,snowman.jpg,sledgehammer.jpg,exitsign.jpg,statue.jpg,corn02.jpg,electricguitar01.jpg,showerhead01.jpg,dalmatian.jpg,rose.jpg,saltshaker03a.jpg,pig.jpg,toad.jpg,cruiseship.jpg,smokingpipe.jpg,magneticcompass.jpg,,,,,0,0,14,,,,,.\resources\saltshaker03a.jpg,,,1,,,,,,,,,,,1,,,,,,,104.93744937000447,None,None,104.93744937000447,None,,,,,,,99.87112409999827,102.62119560001884,102.37121930002468,None,0.07866666671000003,102.87118919999921,None,102.87118919999921,None,104.42107110001962,None,104.42107110001962,None,right,0.3217999000044074,104.42107110001962,None,104.80414240001119,None,104.80414240001119,None,right,0.10670329999993555,104.80414240001119,None,-9.545471510334263,150.0407565987997,,001,2021_Mar_24_1048,AB_pic_singleT2,2020.2.10,59.91748164024009,
AB,lag1,1,3,4,0.06933333338000003,0.021999999999999978,0.3,ramp,,,,,0,14,14,14,,,,,,,trumpet.jpg,barrel01.jpg,pokerchips.jpg,wheelbarrow01.jpg,humanskeleton.jpg,schoolbus.jpg,jeep.jpg,sausage.jpg,dreamcatcher.jpg,cupcake.jpg,candycane01a.jpg,waterfall.jpg,penguin.jpg,dormer.jpg,trophy01.jpg,sandcastle.jpg,baseballbat.jpg,,,,,0,0,6,,,,,.\resources\wheelbarrow01.jpg,,,1,,,,,,,,,,,1,,,,,,,109.17077507001814,None,None,109.17077507001814,None,,,,,,,104.93745670001954,107.68752110001515,107.42083650000859,None,0.06933333338000003,107.92083280000952,None,107.92083280000952,None,108.57079410000006,None,108.57079410000006,None,right,0.3880916000052821,108.57079410000006,None,109.02074670000002,None,109.02074670000002,None,right,0.12214959997800179,109.02074670000002,None,-8.899309494850606,150.0881144916348,,001,2021_Mar_24_1048,AB_pic_singleT2,2020.2.10,59.91748164024009,
AB,lag6,6,5,11,0.06000000005000003,0.02,0.3,main,,,,,0,15,15,15,,,,,,,electricguitar01.jpg,seagull.jpg,fortunecookie.jpg,microphone01.jpg,butterfly.jpg,christmaslights.jpg,curtain.jpg,volleyball.jpg,frisbee.jpg,pumpkin.jpg,car.jpg,lion.jpg,uprightpiano01.jpg,wheelchair.jpg,christmastree.jpg,rubikcube.jpg,sledgehammer.jpg,,,,,0,0,13,,,,,.\resources\car.jpg,,,1,,,,,,,,,,,1,,,,,,,114.75350387000363,None,None,114.75350387000363,None,,,,,,,109.17050629999721,111.92057470002328,111.67059600001085,None,0.0685304355432073,112.17055360000813,None,112.17055360000813,None,113.42045040000812,None,113.42045040000812,None,right,0.9625247000076342,113.42045040000812,None,114.43685350002488,None,114.43685350002488,None,right,0.29806010000174865,114.43685350002488,None,-8.269196012479734,150.1331603653032,,001,2021_Mar_24_1048,AB_pic_singleT2,2020.2.10,59.91748164024009,
AB,lag1,1,5,6,0.06000000005000003,0.02,0.3,main,,,,,0,16,16,16,,,,,,,sledgehammer.jpg,escalator.jpg,surfboard.jpg,horse.jpg,shower.jpg,snowman.jpg,mailbox02.jpg,bench01.jpg,candycane01a.jpg,penguin.jpg,sausage.jpg,fingerprint.jpg,helicopter.jpg,cork02.jpg,smokingpipe.jpg,cupcake.jpg,butterfly.jpg,,,,,0,1,8,,,,,.\resources\snowman.jpg,,,1,,,,,,,,,,,1,,,,,,,119.50321666999953,None,None,119.50321666999953,None,,,,,,,114.75349270002334,117.50351720000617,117.25354590002098,None,0.06431284301286895,117.75352500000736,None,117.75352500000736,None,118.51990730001125,None,118.51990730001125,None,right,0.8150510000123177,118.51990730001125,None,119.38654970002244,None,119.38654970002244,None,left,0.1003410000121221,119.38654970002244,None,-7.665963707521319,150.17485493964236,,001,2021_Mar_24_1048,AB_pic_singleT2,2020.2.10,59.91748164024009,
AB,lag5,5,3,8,0.06000000005000003,0.02,0.3,main,,,,,0,17,17,17,,,,,,,cigar.jpg,turnstile.jpg,vacuumcleaner01.jpg,windshieldwiper02.jpg,cobra.jpg,cat.jpg,hulahoop.jpg,steeringwheel.jpg,floorlamp.jpg,safe.jpg,dreamcatcher.jpg,waterfountain02.jpg,dragonfly01.jpg,crab01.jpg,popcorn.jpg,church.jpg,dromedary.jpg,,,,,0,0,10,,,,,.\resources\steeringwheel.jpg,,,1,,,,,,,,,,,1,,,,,,,124.15291707001161,None,None,124.15291707001161,None,,,,,,,119.50316120000207,122.25323100000969,121.9865822000138,None,0.06027812094294651,122.48656570000458,None,122.48656570000458,None,123.38649450000958,None,123.38649450000958,None,right,0.564425399992615,123.38649450000958,None,124.00289299999713,None,124.00289299999713,None,right,0.13200010001310147,124.00289299999713,None,-7.088834590764558,150.21336186874188,,001,2021_Mar_24_1048,AB_pic_singleT2,2020.2.10,59.91748164024009,
AB,lag3,3,4,7,0.06000000005000003,0.02,0.3,main,,,,,0,18,18,18,,,,,,,squid.jpg,rubikcube.jpg,bowlingball.jpg,ear.jpg,skippingrope.jpg,swing.jpg,lip.jpg,tree.jpg,horse.jpg,granolabar01.jpg,punchingbag.jpg,electrictoothbrush01c.jpg,kangaroo.jpg,dromedary.jpg,squirrel.jpg,ipad02.jpg,dalmatian.jpg,,,,,0,0,9,,,,,.\resources\lip.jpg,,,1,,,,,,,,,,,1,,,,,,,128.48598027001134,None,None,128.48598027001134,None,,,,,,,124.15289970001322,126.90293820001534,126.65298770001391,None,0.05642060630591645,127.15292740002042,None,127.15292740002042,None,127.91950800002087,None,127.91950800002087,None,right,0.38346050001564436,127.91950800002087,None,128.3528070000175,None,128.3528070000175,None,right,0.11818119999952614,128.3528070000175,None,-6.538365079744742,150.24904494292093,,001,2021_Mar_24_1048,AB_pic_singleT2,2020.2.10,59.91748164024009,
AB,lag2,2,5,7,0.06000000005000003,0.02,0.3,main,,,,,0,19,19,19,,,,,,,platypus.jpg,waterfall.jpg,hockeystick.jpg,sword01.jpg,airhockeytable.jpg,mrpotatohead.jpg,fingerprint.jpg,ceilingfan01.jpg,holdfast.jpg,cloud.jpg,knee.jpg,motorcycle.jpg,spicerack.jpg,bull.jpg,worldmap.jpg,basketball01.jpg,duck01.jpg,,,,,0,0,9,,,,,.\resources\fingerprint.jpg,,,0,,,,,,,,,,,1,,,,,,,133.50236697001964,None,None,133.50236697001964,None,,,,,,,128.48593110000365,131.23601620001136,130.98601310001686,None,0.05274349293784318,131.48600620002253,None,131.48600620002253,None,132.21923440002138,None,132.21923440002138,None,left,1.131656599987764,132.21923440002138,None,133.40228950002347,None,133.40228950002347,None,right,0.06860940001206473,133.40228950002347,None,-7.095406966287269,150.2262507103487,,001,2021_Mar_24_1048,AB_pic_singleT2,2020.2.10,59.91748164024009,
AB,lag4,4,3,7,0.06000000005000003,0.02,0.3,main,,,,,0,20,20,20,,,,,,,bumpercar.jpg,schoolbus.jpg,showerhead01.jpg,treadmill.jpg,cobra.jpg,scooter.jpg,ant.jpg,skippingrope.jpg,lollipop04.jpg,skateboard.jpg,eyepatch.jpg,trampoline.jpg,pumpkin.jpg,saxophone.jpg,volleyball.jpg,surfboard.jpg,squid.jpg,,,,,0,0,9,,,,,.\resources\ant.jpg,,,0,,,,,,,,,,,1,,,,,,,138.06878657000487,None,None,138.06878657000487,None,,,,,,,133.50228280000738,136.252547400014,136.00255120001384,None,0.05645951547949321,136.5025177000207,None,136.5025177000207,None,137.28551000001607,None,137.28551000001607,None,left,0.6493718999845441,137.28551000001607,None,138.0021474000241,None,138.0021474000241,None,right,0.0368843000032939,138.0021474000241,None,-7.893793638106435,150.1903066400392,,001,2021_Mar_24_1048,AB_pic_singleT2,2020.2.10,59.91748164024009,
AB,lag7,7,5,12,0.06000000005000003,0.02,0.3,main,,,,,0,21,21,21,,,,,,,discoball.jpg,worldmap.jpg,floorlamp.jpg,parkingmeter.jpg,platypus.jpg,waterfall.jpg,lion.jpg,toyanimal05.jpg,polarbear.jpg,englishcucumber.jpg,birdnest.jpg,tarantula.jpg,escalator.jpg,ladybug03.jpg,sausage.jpg,harmonica.jpg,apron.jpg,,,,,0,1,14,,,,,.\resources\tarantula.jpg,,,1,,,,,,,,,,,1,,,,,,,143.36853506999904,None,None,143.36853506999904,None,,,,,,,138.06876640001428,140.81912920001196,140.56912610001746,None,0.061788861124492486,141.0686445000174,None,141.0686445000174,None,142.31863400002476,None,142.31863400002476,None,right,0.7122749999980442,142.31863400002476,None,143.10184230000596,None,143.10184230000596,None,left,0.2410072000056971,143.10184230000596,None,-7.912778425488896,150.20030702328268,,001,2021_Mar_24_1048,AB_pic_singleT2,2020.2.10,59.91748164024009,
AB,lag6,6,5,11,0.06000000005000003,0.02,0.3,main,,,,,0,22,22,22,,,,,,,guitarcase.jpg,crosscountryski.jpg,sandcastle.jpg,donut.jpg,electricguitar01.jpg,ladybug03.jpg,rollerblade.jpg,spicerack.jpg,soccerball.jpg,tie02.jpg,anchor.jpg,jeep.jpg,apron.jpg,pirateflag.jpg,swordfish.jpg,greatwhiteshark.jpg,licenseplate.jpg,,,,,0,0,13,,,,,.\resources\anchor.jpg,,,1,,,,,,,,,,,1,,,,,,,148.60153977001318,None,None,148.60153977001318,None,,,,,,,143.38533859999734,146.13544680000632,145.85214960001758,None,0.06191114366475515,146.35166440001922,None,146.35166440001922,None,147.5183851000038,None,147.5183851000038,None,right,0.7685429999837652,147.5183851000038,None,148.36836310001672,None,148.36836310001672,None,right,0.21452489998773672,148.36836310001672,None,-7.801764799407403,150.21823357558327,,001,2021_Mar_24_1048,AB_pic_singleT2,2020.2.10,59.91748164024009,
AB,lag7,7,5,12,0.06000000005000003,0.02,0.3,main,,,,,0,23,23,23,,,,,,,chair.jpg,car.jpg,tie02.jpg,anchor.jpg,kiwi03.jpg,swordfish.jpg,tank.jpg,totempole.jpg,key07.jpg,vulture.jpg,tennisracket.jpg,wallclock.jpg,trampoline.jpg,humanskeleton.jpg,musicsheet.jpg,crosscountryski.jpg,frisbee.jpg,,,,,1,1,14,,,,,.\resources\wallclock.jpg,,,1,,,,,,,,,,,0,,,,,,,153.8344510700146,None,None,153.8344510700146,None,,,,,,,148.6181779000035,151.36846389999846,151.0851512000081,None,0.06116473973783124,151.58468950001406,None,151.58468950001406,None,152.8345541000017,None,152.8345541000017,None,left,0.8282806999923196,152.8345541000017,None,153.7345975000062,None,153.7345975000062,None,right,0.08022720000008121,153.7345975000062,None,-7.678161411327292,150.23693087998316,,001,2021_Mar_24_1048,AB_pic_singleT2,2020.2.10,59.91748164024009,
AB,lag5,5,3,8,0.06000000005000003,0.02,0.3,main,,,,,0,24,24,24,,,,,,,swing.jpg,safe.jpg,porcupine.jpg,holdfast.jpg,accordion01.jpg,lily.jpg,peacock.jpg,car.jpg,apron.jpg,toolbox02.jpg,armadillo.jpg,volleyball.jpg,dromedary.jpg,chainsaw.jpg,lip.jpg,ipad02.jpg,fortunecookie.jpg,,,,,0,1,10,,,,,.\resources\car.jpg,,,1,,,,,,,,,,,1,,,,,,,159.25087037000338,None,None,159.25087037000338,None,,,,,,,153.85112279999885,156.6013868000009,156.31808470000396,None,0.060334404592492154,156.81763950001914,None,156.81763950001914,None,157.7342828999972,None,157.7342828999972,None,right,1.1845766000042204,157.7342828999972,None,159.00084360002074,None,159.00084360002074,None,left,0.23006150001310743,159.00084360002074,None,-7.55705035951379,150.2553289113619,,001,2021_Mar_24_1048,AB_pic_singleT2,2020.2.10,59.91748164024009,
AB,lag3,3,3,6,0.06000000005000003,0.02,0.3,main,,,,,0,25,25,25,,,,,,,drumstick.jpg,porcupine.jpg,arrow02.jpg,kiwi03.jpg,sandcastle.jpg,helicopter.jpg,platypus.jpg,windmill.jpg,electricguitar01.jpg,cat.jpg,crab01.jpg,dragonfly01.jpg,chefshat.jpg,surfboard.jpg,chimney.jpg,pooltable.jpg,candycane01a.jpg,,,,,0,1,8,,,,,.\resources\helicopter.jpg,,,1,,,,,,,,,,,1,,,,,,,164.18385337000944,None,None,164.18385337000944,None,,,,,,,159.26760590000777,162.0176987000159,161.73437800002284,None,0.059520981954054406,162.2339525000134,None,162.2339525000134,None,162.984051300009,None,162.984051300009,None,right,0.9108287999988534,162.984051300009,None,163.96734000000288,None,163.96734000000288,None,left,0.19952979998197407,163.96734000000288,None,-7.439609029728748,150.27322129148814,,001,2021_Mar_24_1048,AB_pic_singleT2,2020.2.10,59.91748164024009,
AB,lag2,2,3,5,0.06000000005000003,0.02,0.3,main,,,,,0,26,26,26,,,,,,,handcuffs.jpg,birdnest.jpg,shovel01.jpg,whiteout.jpg,toolbox02.jpg,trampoline.jpg,scorpion.jpg,cactus.jpg,pokerchips.jpg,saxophone.jpg,paperairplane.jpg,frisbee.jpg,mummy.jpg,banjo.jpg,chefshat.jpg,tank.jpg,snowman.jpg,,,,,0,0,7,,,,,.\resources\toolbox02.jpg,,,1,,,,,,,,,,,0,,,,,,,168.81685137002495,None,None,168.81685137002495,None,,,,,,,164.2005085000128,166.9507053999987,166.66719240002567,None,0.05873237636750228,167.16693940002006,None,167.16693940002006,None,167.81692430001567,None,167.81692430001567,None,right,0.7499325999815483,167.81692430001567,None,168.63354979999713,None,168.63354979999713,None,left,0.15731660000164993,168.63354979999713,None,-7.32540407607279,150.2905295498843,,001,2021_Mar_24_1048,AB_pic_singleT2,2020.2.10,59.91748164024009,
AB,lag1,1,5,6,0.06000000005000003,0.02,0.3,main,,,,,0,27,27,27,,,,,,,boat.jpg,spicerack.jpg,frisbee.jpg,urinal.jpg,scorpion.jpg,triangle.jpg,tie02.jpg,paperairplane.jpg,drumset.jpg,whiteout.jpg,toucan.jpg,mailbox02.jpg,car.jpg,foldingchair.jpg,ironingboard01.jpg,microphone01.jpg,mouse.jpg,,,,,0,0,8,,,,,.\resources\triangle.jpg,,,1,,,,,,,,,,,1,,,,,,,173.2332668700139,None,None,173.2332668700139,None,,,,,,,168.83355470001698,171.58382900001016,171.3004237000132,None,0.05796571788843888,171.8000470000261,None,171.8000470000261,None,172.53333500001463,None,172.53333500001463,None,right,0.5055510000092909,172.53333500001463,None,173.1167818000249,None,173.1167818000249,None,right,0.09810549998655915,173.1167818000249,None,-7.213934084659988,150.3072053192312,,001,2021_Mar_24_1048,AB_pic_singleT2,2020.2.10,59.91748164024009,
AB,lag4,4,5,9,0.06000000005000003,0.02,0.3,main,,,,,0,28,28,28,,,,,,,leafblower01.jpg,africanelephant.jpg,ipad02.jpg,armadillo.jpg,dreamcatcher.jpg,beaver.jpg,windshieldwiper02.jpg,footballhelmet.jpg,cross01.jpg,totempole.jpg,lip.jpg,telescope.jpg,parachute.jpg,jackrabbit.jpg,elbow.jpg,vulture.jpg,cymbal.jpg,,,,,0,0,11,,,,,.\resources\cross01.jpg,,,1,,,,,,,,,,,1,,,,,,,177.8329155700223,None,None,177.8329155700223,None,,,,,,,173.24989200002165,176.00016490000417,175.73353090000455,None,0.05721767248292729,176.23305270000128,None,176.23305270000128,None,177.18298260000302,None,177.18298260000302,None,right,0.4241516999900341,177.18298260000302,None,177.68297780002467,None,177.68297780002467,None,right,0.12403490001452155,177.68297780002467,None,-7.104790631350298,150.3232158568246,,001,2021_Mar_24_1048,AB_pic_singleT2,2020.2.10,59.91748164024009,
AB,lag3,3,4,7,0.06000000005000003,0.02,0.3,main,,,,,0,29,29,29,,,,,,,key07.jpg,brownsugar.jpg,grizzly.jpg,drumstick.jpg,beaver.jpg,electricguitar01.jpg,rose.jpg,tortoise01.jpg,tank.jpg,lizard.jpg,lightswitch01.jpg,christmaslights.jpg,horse.jpg,volleyball.jpg,hockeypuck.jpg,crown.jpg,pig.jpg,,,,,0,0,9,,,,,.\resources\rose.jpg,,,1,,,,,,,,,,,1,,,,,,,182.26601817000773,None,None,182.26601817000773,None,,,,,,,177.84977700002491,180.59990160001325,180.33321890002117,None,0.056485519845168336,180.83275770000182,None,180.83275770000182,None,181.63270580000244,None,181.63270580000244,None,right,0.4302146999980323,181.63270580000244,None,182.13270250000642,None,182.13270250000642,None,right,0.10615530001814477,182.13270250000642,None,-6.997654306321231,150.3385404799891,,001,2021_Mar_24_1048,AB_pic_singleT2,2020.2.10,59.91748164024009,
AB,lag1,1,4,5,0.06000000005000003,0.02,0.3,main,,,,,0,30,30,30,,,,,,,squid.jpg,tulip02.jpg,musicsheet.jpg,christmaslights.jpg,greathornowl.jpg,kite.jpg,banjo.jpg,statue.jpg,shower.jpg,swing.jpg,scooter.jpg,crosscountryski.jpg,panda.jpg,platypus.jpg,ceilingfan01.jpg,dandelion.jpg,leafblower01.jpg,,,,,1,1,7,,,,,.\resources\greathornowl.jpg,,,1,,,,,,,,,,,1,,,,,,,187.1823264700244,None,None,187.1823264700244,None,,,,,,,182.28269800002454,185.0329061000084,184.76625909999711,None,0.055767128247178055,185.26585750002414,None,185.26585750002414,None,185.8995143000211,None,185.8995143000211,None,left,0.9233787000121083,185.8995143000211,None,186.8991825999983,None,186.8991825999983,None,left,0.26770489997579716,186.8991825999983,None,-6.892277059485104,150.35316865406702,,001,2021_Mar_24_1048,AB_pic_singleT2,2020.2.10,59.91748164024009,
AB,lag4,4,5,9,0.06000000005000003,0.02,0.3,main,,,,,0,31,31,31,,,,,,,fingerprint.jpg,knee.jpg,escalator.jpg,sausage.jpg,guitarcase.jpg,microwave.jpg,raccoon.jpg,funnel.jpg,tennisracket.jpg,parrot01.jpg,bed.jpg,drumstick.jpg,ladder.jpg,cork02.jpg,totempole.jpg,apron.jpg,elbow.jpg,,,,,0,0,11,,,,,.\resources\tennisracket.jpg,,,1,,,,,,,,,,,1,,,,,,,191.69872447000233,None,None,191.69872447000233,None,,,,,,,187.1991326000134,189.94922280000173,189.68260090000695,None,0.055060837724360524,190.18260200001532,None,190.18260200001532,None,191.1154248000239,None,191.1154248000239,None,right,0.38745780001045205,191.1154248000239,None,191.5822007000097,None,191.5822007000097,None,right,0.09669360000407323,191.5822007000097,None,-6.7884676264784325,150.36709852290747,,001,2021_Mar_24_1048,AB_pic_singleT2,2020.2.10,59.91748164024009,
AB,lag6,6,3,9,0.06000000005000003,0.02,0.3,main,,,,,0,32,32,32,,,,,,,funnel.jpg,moon.jpg,dandelion.jpg,key07.jpg,tarantula.jpg,greatwhiteshark.jpg,fireplace.jpg,noparkingsign.jpg,kite.jpg,worldmap.jpg,cigar.jpg,magneticcompass.jpg,punchingbag.jpg,musicsheet.jpg,jeans01.jpg,urinal.jpg,humanskeleton.jpg,,,,,0,0,11,,,,,.\resources\kite.jpg,,,1,,,,,,,,,,,0,,,,,,,196.465685070015,None,None,196.465685070015,None,,,,,,,191.71550050002406,194.4652911000012,194.19911790001788,None,0.05436536361944199,194.69871610001428,None,194.69871610001428,None,195.61558460001834,None,195.61558460001834,None,right,0.6712661999918055,195.61558460001834,None,196.365179800021,None,196.365179800021,None,left,0.07366659998660907,196.365179800021,None,-6.686080594287847,150.38033569265198,,001,2021_Mar_24_1048,AB_pic_singleT2,2020.2.10,59.91748164024009,
,,,,,,,,,,,,,,,,,,,,,,,sword01.jpg,xylophone.jpg,tent.jpg,rollerblade.jpg,polarbear.jpg,cloud.jpg,greatwhiteshark.jpg,dalmatian.jpg,hockeypuck.jpg,statue.jpg,tank.jpg,magneticcompass.jpg,greywolf.jpg,scorpion.jpg,marble.jpg,pirateflag.jpg,windmill.jpg,,,,,,,,,,,,,,,,,,,,,,,,,,,,,,,,,,,,,,,,,,,,,,,,,,,,,,,,,,,,,,,,,,,,,,,,,,,,,
