trialType,cndTyp,lag,T1_loc,T2_loc,stimLen,isi,skipProb,phase,trials.thisRepN,trials.thisTrialN,trials.thisN,trials.thisIndex,trials2.thisRepN,trials2.thisTrialN,trials2.thisN,trials2.thisIndex,text_3.started,text_3.stopped,key_resp_4.keys,key_resp_4.rt,key_resp_4.started,key_resp_4.stopped,img0,img1,img2,img3,img4,img5,img6,img7,img8,img9,img10,img11,img12,img13,img14,img15,img16,option1.started,option1.stopped,text_2.started,text_2.stopped,skip1,skip2,lastPresent,displayPicture.started,displayPicture.stopped,polygon_2.started,polygon_2.stopped,opt1_t1,polygon_4.started,polygon_4.stopped,cor1,option1_t1.started,option1_t1.stopped,key_resp.keys,key_resp.rt,key_resp.started,key_resp.stopped,polygon_5.started,polygon_5.stopped,text_6.started,text_6.stopped,cor2,key_resp_2.keys,key_resp_2.rt,key_resp_2.started,key_resp_2.stopped,feedbackText.started,feedbackText.stopped,text.started,text.stopped,key_resp_3.keys,key_resp_3.started,key_resp_3.stopped,text_4.started,text_4.stopped,key_resp_7.keys,key_resp_7.rt,key_resp_7.started,key_resp_7.stopped,option1_3.started,option1_3.stopped,text_7.started,text_7.stopped,curStimTim,displayPicture_4.started,displayPicture_4.stopped,polygon_16.started,polygon_16.stopped,polygon_7.started,polygon_7.stopped,option1_t1_2.started,option1_t1_2.stopped,key_resp_6.keys,key_resp_6.rt,key_resp_6.started,key_resp_6.stopped,polygon_17.started,polygon_17.stopped,text_8.started,text_8.stopped,key_resp_8.keys,key_resp_8.rt,key_resp_8.started,key_resp_8.stopped,B0,B1,key_resp_3.rt,participant,session,date,expName,psychopyVersion,frameRate,
,460.53518750006333,None,space,1.085480900015682,460.53518750006333,None,AdamFull,001,2021_Mar_30_1355,AB_pic_singleT2,2020.2.10,60.2183275764758,
AB,lag3,3,3,6,0.2,0.05,0.5,0,0,0,5,smokingpipe.jpg,toolbox02.jpg,turnstile.jpg,cruiseship.jpg,crown.jpg,whiteout.jpg,horseshoe.jpg,swordfish.jpg,triangle.jpg,dolphin01.jpg,armadillo.jpg,arrow02.jpg,nunchuk.jpg,toucan.jpg,frisbee.jpg,sink.jpg,birthdaycandle.jpg,461.74829200003296,464.5027894000523,464.2028758999659,None,0,1,8,464.6650891000172,None,464.6650891000172,None,.\resources\whiteout.jpg,466.92529879999347,None,1,466.92529879999347,None,right,0.5387601000256836,466.92529879999347,None,467.48621750005987,None,467.48621750005987,None,1,left,0.1939733000472188,467.48621750005987,None,467.70977620000485,None,468.7190005699871,None,None,468.7190005699871,None,AdamFull,001,2021_Mar_30_1355,AB_pic_singleT2,2020.2.10,60.2183275764758,
AB,lag6,6,5,11,0.2,0.05,0.5,0,1,1,8,rose.jpg,jellybean.jpg,lollipop04.jpg,nosmokingsign.jpg,scorpion.jpg,christmastree.jpg,crosscountryski.jpg,butterfly.jpg,brownsugar.jpg,tank.jpg,tent.jpg,frisbee.jpg,stool01.jpg,sausage.jpg,cigar.jpg,doghouse.jpg,skunk.jpg,468.7185717000393,471.4674566000467,471.2181496999692,None,1,1,13,471.7175266999984,None,471.7175266999984,None,.\resources\tent.jpg,475.218608199968,None,1,475.218608199968,None,left,0.44481680006720126,475.218608199968,None,475.6840541000711,None,475.6840541000711,None,1,left,0.21062929998151958,475.6840541000711,None,475.9164795000106,None,476.9158891699975,None,None,476.9158891699975,None,AdamFull,001,2021_Mar_30_1355,AB_pic_singleT2,2020.2.10,60.2183275764758,
AB,lag4,4,3,7,0.2,0.05,0.5,0,2,2,1,windmill.jpg,mouse.jpg,musicsheet.jpg,icecube02.jpg,rubikcube.jpg,sheep.jpg,hulahoop.jpg,key07.jpg,spicerack.jpg,humanskeleton.jpg,airhockeytable.jpg,frenchfries.jpg,swing.jpg,snowshovel.jpg,bowlingpin.jpg,dreamcatcher.jpg,skateboard.jpg,476.9163663999643,479.66468390007503,479.41528539999854,None,0,1,9,479.9147817000048,None,479.9147817000048,None,.\resources\hulahoop.jpg,482.4160955999978,None,1,482.4160955999978,None,right,0.530558800091967,482.4160955999978,None,482.9649417999899,None,482.9649417999899,None,1,left,0.2095108999637887,482.9649417999899,None,483.19677879998926,None,484.1974480700213,None,None,484.1974480700213,None,AdamFull,001,2021_Mar_30_1355,AB_pic_singleT2,2020.2.10,60.2183275764758,
AB,lag5,5,4,9,0.2,0.05,0.5,0,3,3,6,toyanimal05.jpg,steeringwheel.jpg,greywolf.jpg,jeans01.jpg,cannon.jpg,coffeemaker.jpg,cocktailshrimp02.jpg,mummy.jpg,kite.jpg,statue.jpg,toolbox02.jpg,badmintonracket.jpg,tulip02.jpg,bed.jpg,granolabar01.jpg,pigeon.jpg,harmonica.jpg,484.19771700003184,486.96316839999054,486.69719430000987,None,1,1,11,487.1968320000451,None,487.1968320000451,None,.\resources\kite.jpg,490.1968051000731,None,1,490.1968051000731,None,left,0.7203779000556096,490.1968051000731,None,490.9459120000247,None,490.9459120000247,None,1,left,0.15521849994547665,490.9459120000247,None,491.12857389997225,None,492.12851587005423,None,None,492.12851587005423,None,AdamFull,001,2021_Mar_30_1355,AB_pic_singleT2,2020.2.10,60.2183275764758,
AB,lag1,1,4,5,0.2,0.05,0.5,0,4,4,12,parkfountain.jpg,porcupine.jpg,toucan.jpg,parrot01.jpg,frisbee.jpg,ant.jpg,lizard.jpg,ducttape.jpg,eye.jpg,giraffe.jpg,nose.jpg,bridge.jpg,windmill.jpg,makiroll.jpg,birdnest.jpg,lily.jpg,funnel.jpg,492.13315979996696,494.89416220004205,494.6276127999881,None,0,1,7,495.1318428000668,None,495.1318428000668,None,.\resources\frisbee.jpg,497.1355137999635,None,1,497.1355137999635,None,right,0.7301421000156552,497.1355137999635,None,497.89357229997404,None,497.89357229997404,None,1,left,0.1734384000301361,497.89357229997404,None,498.09357520006597,None,499.0926808700664,None,None,499.0926808700664,None,AdamFull,001,2021_Mar_30_1355,AB_pic_singleT2,2020.2.10,60.2183275764758,
AB,lag7,7,4,11,0.2,0.05,0.5,0,5,5,2,parkfountain.jpg,punchingbag.jpg,snowman.jpg,baseballbat.jpg,knee.jpg,cross01.jpg,church.jpg,arrow02.jpg,pooltable.jpg,bed.jpg,bacon.jpg,granolabar01.jpg,fireplace.jpg,sheep.jpg,chefshat.jpg,harmonica.jpg,peacock.jpg,499.09366140002385,501.8580084000714,501.59186659997795,None,1,1,13,502.09213730006013,None,502.09213730006013,None,.\resources\bacon.jpg,505.59226559998933,None,1,505.59226559998933,None,left,0.8492781000677496,505.59226559998933,None,506.4598121000454,None,506.4598121000454,None,1,left,0.1513173000421375,506.4598121000454,None,506.6234425000148,None,507.62327996999954,None,None,507.62327996999954,None,AdamFull,001,2021_Mar_30_1355,AB_pic_singleT2,2020.2.10,60.2183275764758,
AB,lag2,2,5,7,0.2,0.05,0.5,0,6,6,9,cloud.jpg,cat.jpg,knee.jpg,drumset.jpg,nunchuk.jpg,popcorn.jpg,christmaslights.jpg,key07.jpg,panda.jpg,swing.jpg,calendar.jpg,scorpion.jpg,lion.jpg,cashregister01.jpg,uprightpiano01.jpg,windmill.jpg,hulahoop.jpg,507.6238244000124,510.3726324000163,510.1243760000216,None,0,0,9,510.63961379998364,None,510.63961379998364,None,.\resources\christmaslights.jpg,513.1403364000143,None,1,513.1403364000143,None,right,0.17636140005197376,513.1403364000143,None,513.3403020000551,None,513.3403020000551,None,1,right,0.23118429991882294,513.3403020000551,None,513.5883818999864,None,514.5882041699718,None,None,514.5882041699718,None,AdamFull,001,2021_Mar_30_1355,AB_pic_singleT2,2020.2.10,60.2183275764758,
AB,lag7,7,5,12,0.2,0.05,0.5,0,7,7,7,englishcucumber.jpg,uprightpiano01.jpg,scorpion.jpg,trampoline.jpg,slug.jpg,snowshovel.jpg,hotdogweiner.jpg,popcorn.jpg,boat.jpg,microwave.jpg,lawnmower.jpg,doghouse.jpg,seagull.jpg,candycane01a.jpg,zebra.jpg,accordion01.jpg,banjo.jpg,514.5882397000678,517.3374861000339,517.0876162999775,None,0,0,14,517.5887361000059,None,517.5887361000059,None,.\resources\doghouse.jpg,521.3414488000562,None,1,521.3414488000562,None,right,0.5492093999637291,521.3414488000562,None,521.9211229999783,None,521.9211229999783,None,1,right,0.20680990000255406,521.9211229999783,None,522.1530952000758,None,523.1526945699937,None,None,523.1526945699937,None,AdamFull,001,2021_Mar_30_1355,AB_pic_singleT2,2020.2.10,60.2183275764758,
AB,lag3,3,5,8,0.2,0.05,0.5,0,8,8,10,seal.jpg,tank.jpg,zebra.jpg,kangaroo.jpg,vacuumcleaner01.jpg,arrow02.jpg,firehydrant.jpg,cannon.jpg,bench01.jpg,foldingchair.jpg,soccerball.jpg,redfox.jpg,birdfeeder.jpg,vulture.jpg,cross01.jpg,floorlamp.jpg,funnel.jpg,523.154996600002,525.9182251000311,525.6517416000133,None,1,0,10,526.1519392000046,None,526.1519392000046,None,.\resources\cannon.jpg,528.9013452000218,None,1,528.9013452000218,None,left,0.45528059999924153,528.9013452000218,None,529.385576199973,None,529.385576199973,None,1,right,0.21628580009564757,529.385576199973,None,529.6168273000512,None,530.6171117700636,None,None,530.6171117700636,None,AdamFull,001,2021_Mar_30_1355,AB_pic_singleT2,2020.2.10,60.2183275764758,
AB,lag6,6,5,11,0.2,0.05,0.5,0,9,9,0,cactus.jpg,eyepatch.jpg,handcuffs.jpg,bowtie.jpg,arrow02.jpg,hulahoop.jpg,witchhat.jpg,waterfall.jpg,harmonica.jpg,jellyfish.jpg,bridge.jpg,pirateflag.jpg,xylophone.jpg,dreamcatcher.jpg,mouse.jpg,showerhead01.jpg,cloud.jpg,530.6188448000466,533.3827099000337,533.1167004000163,None,1,1,13,533.6177418000298,None,533.6177418000298,None,.\resources\bridge.jpg,537.1165302000009,None,1,537.1165302000009,None,left,0.9393484001047909,537.1165302000009,None,538.0857445000438,None,538.0857445000438,None,1,left,0.19179069995880127,538.0857445000438,None,538.298323999974,None,539.2979878700338,None,None,539.2979878700338,None,AdamFull,001,2021_Mar_30_1355,AB_pic_singleT2,2020.2.10,60.2183275764758,
AB,lag4,4,4,8,0.2,0.05,0.5,0,10,10,13,urinal.jpg,church.jpg,bathtub.jpg,tarantula.jpg,windshieldwiper02.jpg,tennisracket.jpg,firehydrant.jpg,cat.jpg,tulip02.jpg,escalator.jpg,nunchuk.jpg,vulture.jpg,dragonfly01.jpg,fortunecookie.jpg,steeringwheel.jpg,showerhead01.jpg,triangle.jpg,539.2979586999863,542.0468338000355,541.7972385999747,None,0,1,10,542.2973669000203,None,542.2973669000203,None,.\resources\cat.jpg,545.0575449999887,None,1,545.0575449999887,None,right,0.9574712000321597,545.0575449999887,None,546.0313935000449,None,546.0313935000449,None,1,left,0.19074380001984537,546.0313935000449,None,546.2457991000265,None,547.2455509700579,None,None,547.2455509700579,None,AdamFull,001,2021_Mar_30_1355,AB_pic_singleT2,2020.2.10,60.2183275764758,
AB,lag5,5,4,9,0.2,0.05,0.5,0,11,11,11,mattress.jpg,chair.jpg,ceilingfan01.jpg,xylophone.jpg,golfball.jpg,firehydrant.jpg,turnstile.jpg,shower.jpg,birdnest.jpg,tarantula.jpg,hotdogweiner.jpg,leafblower01.jpg,lightswitch01.jpg,ipad02.jpg,kneepad01c.jpg,elbow.jpg,lily.jpg,547.2469101999886,550.0117438000161,549.7452342000324,None,1,1,11,550.2448818000266,None,550.2448818000266,None,.\resources\birdnest.jpg,553.2452491000295,None,1,553.2452491000295,None,left,0.6248763999901712,553.2452491000295,None,553.894555100007,None,553.894555100007,None,1,left,0.18140749994199723,553.894555100007,None,554.0931968999794,None,555.0942921699956,None,None,555.0942921699956,None,AdamFull,001,2021_Mar_30_1355,AB_pic_singleT2,2020.2.10,60.2183275764758,
AB,lag1,1,3,4,0.2,0.05,0.5,0,12,12,3,ceilingfan01.jpg,knee.jpg,scorpion.jpg,cobra.jpg,birthdaycandle.jpg,dartboard.jpg,steeringwheel.jpg,beerbottle.jpg,marble.jpg,brownsugar.jpg,tarantula.jpg,coffeemaker.jpg,fishingrod.jpg,saxophone.jpg,fireplace.jpg,lightswitch01.jpg,africanelephant.jpg,555.0937240000349,557.8590887000319,557.5758534000488,None,0,1,6,558.0761537000071,None,558.0761537000071,None,.\resources\cobra.jpg,559.826865100069,None,1,559.826865100069,None,right,0.7543947999365628,559.826865100069,None,560.6081298000645,None,560.6081298000645,None,1,left,0.21756869996897876,560.6081298000645,None,560.8412892000051,None,561.84148227002,None,None,561.84148227002,None,AdamFull,001,2021_Mar_30_1355,AB_pic_singleT2,2020.2.10,60.2183275764758,
AB,lag2,2,3,5,0.2,0.05,0.5,0,13,13,4,vulture.jpg,banjo.jpg,bull.jpg,popcorn.jpg,bowlingpin.jpg,toucan.jpg,drumset.jpg,wheelbarrow01.jpg,trampoline.jpg,dormer.jpg,mrpotatohead.jpg,dolphin01.jpg,cymbal.jpg,fridge.jpg,leafblower01.jpg,chimney.jpg,anchor.jpg,561.843006900046,564.6070966999978,564.3410480000312,None,1,0,7,564.840440500062,None,564.840440500062,None,.\resources\bowlingpin.jpg,566.8485494999913,None,1,566.8485494999913,None,left,0.5107174000004306,566.8485494999913,None,567.3896646000212,None,567.3896646000212,None,1,right,0.10922969994135201,567.3896646000212,None,567.5233619000064,None,568.5234381700633,None,None,568.5234381700633,None,AdamFull,001,2021_Mar_30_1355,AB_pic_singleT2,2020.2.10,60.2183275764758,
,568.5232783000683,None,space,1.6315074000740424,568.5232783000683,None,AdamFull,001,2021_Mar_30_1355,AB_pic_singleT2,2020.2.10,60.2183275764758,
AB,lag6,6,5,11,0.2,0.05,0.5,ramp,0,0,0,0,cork02.jpg,toad.jpg,sink.jpg,exitsign.jpg,cannon.jpg,boxingglove01.jpg,noparkingsign.jpg,lightswitch01.jpg,platypus.jpg,sausage.jpg,punchingbag.jpg,sheep.jpg,uprightpiano01.jpg,birdnest.jpg,mummy.jpg,snowshovel.jpg,mailbox02.jpg,1,0,13,.\resources\punchingbag.jpg,1,1,577.3538621699903,None,None,577.3538621699903,None,570.2124258000404,572.9729287000373,572.705495000002,None,0.2,573.1887958999723,None,573.1887958999723,None,576.7049819000531,None,576.7049819000531,None,left,0.5028295000083745,576.7049819000531,None,577.2375525999814,None,577.2375525999814,None,right,0.0966605000430718,577.2375525999814,None,AdamFull,001,2021_Mar_30_1355,AB_pic_singleT2,2020.2.10,60.2183275764758,
AB,lag4,4,4,8,0.19066666667,0.048,0.48,ramp,0,1,1,1,soccerball.jpg,handcuffs.jpg,seagull.jpg,athleticsock.jpg,cloud.jpg,bacon.jpg,frisbee.jpg,saltshaker03a.jpg,table01.jpg,ceilingfan01.jpg,safe.jpg,tie02.jpg,dragonfly01.jpg,kiwi03.jpg,eyepatch.jpg,spicerack.jpg,pig.jpg,1,1,10,.\resources\saltshaker03a.jpg,1,1,583.8691211699974,None,None,583.8691211699974,None,577.3597945000511,580.119337500073,579.8529769000597,None,0.19066666667,580.353103899979,None,580.353103899979,None,582.9861231000395,None,582.9861231000395,None,left,0.6937703000148758,582.9861231000395,None,583.755309500033,None,583.755309500033,None,left,0.09819489996880293,583.755309500033,None,-10.001360791690049,150.0000000424746,AdamFull,001,2021_Mar_30_1355,AB_pic_singleT2,2020.2.10,60.2183275764758,
AB,lag7,7,4,11,0.18133333334,0.046,0.45999999999999996,ramp,0,2,2,2,steeringwheel.jpg,lightswitch01.jpg,snowshoe.jpg,kneepad01c.jpg,knee.jpg,coffeemaker.jpg,cigar.jpg,jeep.jpg,swing.jpg,guitarcase.jpg,tulip02.jpg,banjo.jpg,christmaslights.jpg,shovel01.jpg,panda.jpg,tent.jpg,cork02.jpg,1,1,13,.\resources\tulip02.jpg,1,1,591.2500721700256,None,None,591.2500721700256,None,583.8738449000521,586.6341213000705,586.3672071000328,None,0.18133333334,586.8679449000629,None,586.8679449000629,None,590.068065200001,None,590.068065200001,None,left,0.9758945999201387,590.068065200001,None,591.1073705999879,None,591.1073705999879,None,left,0.11360049992799759,591.1073705999879,None,-10.002719446389834,150.00000013655824,AdamFull,001,2021_Mar_30_1355,AB_pic_singleT2,2020.2.10,60.2183275764758,
AB,lag5,5,5,10,0.17200000001000001,0.044,0.43999999999999995,ramp,0,3,3,3,fortunecookie.jpg,frisbee.jpg,airhockeytable.jpg,kite.jpg,chefshat.jpg,birdfeeder.jpg,cat.jpg,windmill.jpg,electrictoothbrush01c.jpg,locker.jpg,cork02.jpg,bluejay.jpg,tree.jpg,ducttape.jpg,donut.jpg,worldmap.jpg,dromedary.jpg,1,0,12,.\resources\locker.jpg,1,1,597.7147150700679,None,None,597.7147150700679,None,591.253501500003,594.0149464000715,593.7487601999892,None,0.17200000001000001,594.2489923000103,None,594.2489923000103,None,597.0648624000605,None,597.0648624000605,None,left,0.38260460004676133,597.0648624000605,None,597.4969952000538,None,597.4969952000538,None,right,0.20237239997368306,597.4969952000538,None,-10.004075333761547,150.00000038823157,AdamFull,001,2021_Mar_30_1355,AB_pic_singleT2,2020.2.10,60.2183275764758,
AB,lag2,2,3,5,0.16266666668000002,0.041999999999999996,0.41999999999999993,ramp,0,4,4,4,bluejay.jpg,cymbal.jpg,mouse.jpg,trumpet.jpg,nunchuk.jpg,showerhead01.jpg,sausage.jpg,peacock.jpg,key07.jpg,acorn.jpg,elbow.jpg,hockeypuck.jpg,xylophone.jpg,ceilingfan01.jpg,pumpkin.jpg,flamingo.jpg,birdnest.jpg,1,0,7,.\resources\nunchuk.jpg,1,1,603.1129706699634,None,None,603.1129706699634,None,597.7149227000773,600.480109600001,600.2139934999868,None,0.16266666668000002,600.7134021000238,None,600.7134021000238,None,602.3641730999807,None,602.3641730999807,None,left,0.5290427000727504,602.3641730999807,None,602.9514596000081,None,602.9514596000081,None,right,0.1426476000342518,602.9514596000081,None,-10.005426297173447,150.0000011389316,AdamFull,001,2021_Mar_30_1355,AB_pic_singleT2,2020.2.10,60.2183275764758,
AB,lag3,3,5,8,0.15333333335000002,0.039999999999999994,0.3999999999999999,ramp,0,5,5,5,penguin.jpg,curtain.jpg,recyclingbin.jpg,brownsugar.jpg,sandcastle.jpg,fortunecookie.jpg,birdfeeder.jpg,schoolbus.jpg,windshieldwiper02.jpg,bridge.jpg,tree.jpg,greatwhiteshark.jpg,christmaslights.jpg,drumset.jpg,sheep.jpg,swordfish.jpg,mouse.jpg,0,0,10,.\resources\schoolbus.jpg,1,1,608.8118968700059,None,None,608.8118968700059,None,603.1166514999932,605.8785096000647,605.6113574000774,None,0.15333333335000002,606.1124567000661,None,606.1124567000661,None,608.2451954999706,None,608.2451954999706,None,right,0.3360701999627054,608.2451954999706,None,608.6479260000633,None,608.6479260000633,None,right,0.1453438000753522,608.6479260000633,None,-10.006764806001751,150.00000351094027,AdamFull,001,2021_Mar_30_1355,AB_pic_singleT2,2020.2.10,60.2183275764758,
AB,lag1,1,4,5,0.14400000002000002,0.03799999999999999,0.3799999999999999,ramp,0,6,6,6,stool01.jpg,smokingpipe.jpg,skippingrope.jpg,bench01.jpg,cannon.jpg,athleticsock.jpg,wallclock.jpg,tent.jpg,crab01.jpg,urinal.jpg,granolabar01.jpg,pirateflag.jpg,football.jpg,shovel01.jpg,chainsaw.jpg,crosscountryski.jpg,hotdogweiner.jpg,0,0,7,.\resources\cannon.jpg,1,1,613.9436349699739,None,None,613.9436349699739,None,608.8124368999852,611.5766202000668,611.3105816000607,None,0.14400000002000002,611.8102167000761,None,611.8102167000761,None,613.2770527000539,None,613.2770527000539,None,right,0.4564750000135973,613.2770527000539,None,613.7913011000492,None,613.7913011000492,None,right,0.13406930002383888,613.7913011000492,None,-10.008064094004647,150.00001124737665,AdamFull,001,2021_Mar_30_1355,AB_pic_singleT2,2020.2.10,60.2183275764758,
AB,lag6,6,5,11,0.13466666669000002,0.03599999999999999,0.3599999999999999,ramp,0,7,7,7,worldmap.jpg,steeringwheel.jpg,humanskeleton.jpg,chefshat.jpg,fireplace.jpg,kite.jpg,makiroll.jpg,cigar.jpg,giraffe.jpg,bench01.jpg,seal.jpg,arrow02.jpg,parkingmeter.jpg,wheelbarrow01.jpg,leafrake.jpg,mouse.jpg,porcupine.jpg,0,0,13,.\resources\seal.jpg,1,1,619.8917471699882,None,None,619.8917471699882,None,613.9444503000705,616.7093744999729,616.4418590000132,None,0.13466666669000002,616.9425546000712,None,616.9425546000712,None,619.3425792000489,None,619.3425792000489,None,right,0.3507684998912737,619.3425792000489,None,619.7681160999928,None,619.7681160999928,None,right,0.1074199000140652,619.7681160999928,None,-10.009227634136485,150.00003695987715,AdamFull,001,2021_Mar_30_1355,AB_pic_singleT2,2020.2.10,60.2183275764758,
AB,lag3,3,4,7,0.12533333336000002,0.03399999999999999,0.33999999999999986,ramp,0,8,8,8,penguin.jpg,bed.jpg,masquerademask01.jpg,squid.jpg,waterfall.jpg,chair.jpg,tiger02.jpg,cactus.jpg,jackrabbit.jpg,hotdogweiner.jpg,lollipop04.jpg,licenseplate.jpg,sledgehammer.jpg,statue.jpg,rollerblade.jpg,boat.jpg,corn02.jpg,0,0,9,.\resources\tiger02.jpg,1,1,625.0237920699641,None,None,625.0237920699641,None,619.8958955999697,622.6570312000113,622.3905577000696,None,0.12533333336000002,622.8911047000438,None,622.8911047000438,None,624.4906363000628,None,624.4906363000628,None,right,0.33348729996941984,624.4906363000628,None,624.8802600000054,None,624.8802600000054,None,right,0.12425730004906654,624.8802600000054,None,-10.009903325668345,150.00012340554508,AdamFull,001,2021_Mar_30_1355,AB_pic_singleT2,2020.2.10,60.2183275764758,
AB,lag4,4,4,8,0.11600000003000002,0.03199999999999999,0.31999999999999984,ramp,0,9,9,9,polarbear.jpg,icecube02.jpg,dreamcatcher.jpg,noparkingsign.jpg,cheetah.jpg,rubikcube.jpg,exitsign.jpg,soccerball.jpg,cactus.jpg,pokerchips.jpg,parrot01.jpg,peacock.jpg,jackrabbit.jpg,bridge.jpg,bull.jpg,basketball01.jpg,safe.jpg,1,0,10,.\resources\soccerball.jpg,1,1,630.355053469981,None,None,630.355053469981,None,625.0243533999892,627.7890939000063,627.5228374999715,None,0.11600000003000002,628.0220777000068,None,628.0220777000068,None,629.6576295000268,None,629.6576295000268,None,left,0.540791800012812,629.6576295000268,None,630.2620110000717,None,630.2620110000717,None,right,0.06419950001873076,630.2620110000717,None,-10.0087969897031,150.00041576432758,AdamFull,001,2021_Mar_30_1355,AB_pic_singleT2,2020.2.10,60.2183275764758,
AB,lag5,5,4,9,0.10666666670000002,0.029999999999999985,0.2999999999999998,ramp,0,10,10,10,turnstile.jpg,masquerademask01.jpg,foot.jpg,ipad02.jpg,snowshovel.jpg,saxophone.jpg,fingerprint.jpg,lip.jpg,jellybean.jpg,eyepatch.jpg,hotdogweiner.jpg,mattress.jpg,giraffe.jpg,wheelchair.jpg,surfboard.jpg,bacon.jpg,horse.jpg,1,0,11,.\resources\jellybean.jpg,0,1,637.1039320700569,None,None,637.1039320700569,None,630.3577318000607,633.1205500999931,632.854553900077,None,0.10666666670000002,633.3548247000435,None,633.3548247000435,None,635.0048442999832,None,635.0048442999832,None,right,0.5570925999199972,635.0048442999832,None,635.6224657000275,None,635.6224657000275,None,right,1.4632934000110254,635.6224657000275,None,-12.689916469520137,149.71462399354266,AdamFull,001,2021_Mar_30_1355,AB_pic_singleT2,2020.2.10,60.2183275764758,
AB,lag2,2,3,5,0.09733333337000002,0.027999999999999983,0.3,ramp,0,11,11,11,ant.jpg,butterfly.jpg,foosballtable.jpg,snowshovel.jpg,licenseplate.jpg,mouse.jpg,cigar.jpg,armadillo.jpg,mattress.jpg,squirrel.jpg,shovel01.jpg,footballhelmet.jpg,treadmill.jpg,witchhat.jpg,lip.jpg,pooltable.jpg,icecube02.jpg,1,1,7,.\resources\licenseplate.jpg,1,1,642.1525972700678,None,None,642.1525972700678,None,637.109250199981,639.8697080999846,639.6017245000694,None,0.09733333337000002,640.102083100006,None,640.102083100006,None,641.1247728000162,None,641.1247728000162,None,left,0.8195026000030339,641.1247728000162,None,642.006958300015,None,642.006958300015,None,left,0.12880669999867678,642.006958300015,None,-14.20700330603798,149.54740109096164,AdamFull,001,2021_Mar_30_1355,AB_pic_singleT2,2020.2.10,60.2183275764758,
AB,lag1,1,4,5,0.08800000004000003,0.02599999999999998,0.3,ramp,0,12,12,12,hotdogweiner.jpg,rose.jpg,anchor.jpg,leafblower01.jpg,lawnmower.jpg,scorpion.jpg,smokingpipe.jpg,squirrel.jpg,tire.jpg,ladder.jpg,cow.jpg,stool01.jpg,statue.jpg,waterfountain02.jpg,kneepad01c.jpg,ironingboard01.jpg,escalator.jpg,0,0,7,.\resources\lawnmower.jpg,1,1,647.0173952700337,None,None,647.0173952700337,None,642.1533320000162,644.9178535999963,644.6503428000724,None,0.08800000004000003,645.1512376000173,None,645.1512376000173,None,646.0672589000314,None,646.0672589000314,None,right,0.6394955000141636,646.0672589000314,None,646.772771100048,None,646.772771100048,None,right,0.21951460000127554,646.772771100048,None,-13.759484060214264,149.55940128148626,AdamFull,001,2021_Mar_30_1355,AB_pic_singleT2,2020.2.10,60.2183275764758,
AB,lag7,7,5,12,0.07866666671000003,0.02399999999999998,0.3,ramp,0,13,13,13,africanelephant.jpg,ladybug03.jpg,exitsign.jpg,nunchuk.jpg,parkingmeter.jpg,zebra.jpg,fireplace.jpg,sledgehammer.jpg,bow.jpg,hockeystick.jpg,candycane01a.jpg,scooter.jpg,cymbal.jpg,spicerack.jpg,spiderweb.jpg,swing.jpg,peacock.jpg,0,1,14,.\resources\scooter.jpg,1,1,653.2321210700087,None,None,653.2321210700087,None,647.0178996999748,649.7821668999968,649.5160810999805,None,0.07866666671000003,650.0172632000176,None,650.0172632000176,None,651.5663955999771,None,651.5663955999771,None,right,1.3838650999823585,651.5663955999771,None,653.0048998000566,None,653.0048998000566,None,left,0.20104890002403408,653.0048998000566,None,-12.63728306041047,149.60980126858334,AdamFull,001,2021_Mar_30_1355,AB_pic_singleT2,2020.2.10,60.2183275764758,
AB,lag1,1,3,4,0.06933333338000003,0.021999999999999978,0.3,ramp,0,14,14,14,bow.jpg,sandcastle.jpg,treadmill.jpg,englishcucumber.jpg,rooster.jpg,arrow02.jpg,tennisracket.jpg,icecube02.jpg,turnstile.jpg,cigar.jpg,birdnest.jpg,marble.jpg,granolabar01.jpg,africanelephant.jpg,drumset.jpg,jeep.jpg,bluejay.jpg,0,0,6,.\resources\englishcucumber.jpg,1,1,657.6809432699578,None,None,657.6809432699578,None,653.2349213999696,655.9973711000057,655.7307147000683,None,0.06933333338000003,656.2305908000562,None,656.2305908000562,None,656.8910865000216,None,656.8910865000216,None,right,0.5732578999595717,656.8910865000216,None,657.519857199979,None,657.519857199979,None,right,0.14281620003748685,657.519857199979,None,-11.3570252834114,149.64744296015175,AdamFull,001,2021_Mar_30_1355,AB_pic_singleT2,2020.2.10,60.2183275764758,
AB,lag6,6,5,11,0.06000000005000003,0.02,0.3,main,0,15,15,15,bacon.jpg,eyepatch.jpg,squirrel.jpg,spicerack.jpg,tree.jpg,daddylonglegs.jpg,toolbox02.jpg,boat.jpg,greatwhiteshark.jpg,triangle.jpg,cymbal.jpg,telescope.jpg,tulip02.jpg,statue.jpg,bluejay.jpg,ladybug03.jpg,frenchfries.jpg,1,1,13,.\resources\cymbal.jpg,1,1,663.0294214699883,None,None,663.0294214699883,None,657.681660000002,660.4456527000293,660.1797936999938,None,0.08515561236769406,660.6789677999914,None,660.6789677999914,None,662.1638862000545,None,662.1638862000545,None,left,0.6488783999811858,662.1638862000545,None,662.875542200054,None,662.875542200054,None,left,0.128271900000982,662.875542200054,None,-10.827242169223146,149.63045418727083,AdamFull,001,2021_Mar_30_1355,AB_pic_singleT2,2020.2.10,60.2183275764758,
AB,lag1,1,5,6,0.06000000005000003,0.02,0.3,main,0,16,16,16,ceilingfan01.jpg,dandelion.jpg,locker.jpg,lollipop04.jpg,table01.jpg,apron.jpg,worldmap.jpg,beaver.jpg,waterfountain02.jpg,parachute.jpg,lawnmower.jpg,pirateflag.jpg,toyanimal05.jpg,schoolbus.jpg,pig.jpg,fireplace.jpg,mouse.jpg,0,0,8,.\resources\apron.jpg,1,1,667.6114417699631,None,None,667.6114417699631,None,663.0303151999833,665.7946605000179,665.5274639000418,None,0.08162467057045163,666.0281419999665,None,666.0281419999665,None,666.9614886000054,None,666.9614886000054,None,right,0.4396433000219986,666.9614886000054,None,667.4697198000504,None,667.4697198000504,None,right,0.12193510006181896,667.4697198000504,None,-10.50226798422675,149.60171456845086,AdamFull,001,2021_Mar_30_1355,AB_pic_singleT2,2020.2.10,60.2183275764758,
AB,lag5,5,3,8,0.06000000005000003,0.02,0.3,main,0,17,17,17,tent.jpg,trampoline.jpg,licenseplate.jpg,punchingbag.jpg,mrpotatohead.jpg,lighthouse.jpg,basketball01.jpg,skateboard.jpg,flag.jpg,snowshovel.jpg,bacon.jpg,zipper.jpg,golfball.jpg,duck01.jpg,cigar.jpg,apron.jpg,bow.jpg,1,1,10,.\resources\skateboard.jpg,1,1,672.9932664700085,None,None,672.9932664700085,None,667.620813400019,670.3759182000067,670.1094019999728,None,0.07946808884938937,670.6103333999636,None,670.6103333999636,None,671.7127541999798,None,671.7127541999798,None,left,1.0521392000373453,671.7127541999798,None,672.8300902000628,None,672.8300902000628,None,left,0.14646540000103414,672.8300902000628,None,-10.24145036583883,149.57135671431618,AdamFull,001,2021_Mar_30_1355,AB_pic_singleT2,2020.2.10,60.2183275764758,
AB,lag3,3,4,7,0.06000000005000003,0.02,0.3,main,0,18,18,18,electricguitar01.jpg,icecube02.jpg,cross01.jpg,toyanimal05.jpg,seal.jpg,cactus.jpg,bull.jpg,grizzly.jpg,boat.jpg,anchor.jpg,cat.jpg,squid.jpg,redfox.jpg,totempole.jpg,coffeemaker.jpg,lizard.jpg,leafrake.jpg,1,0,9,.\resources\bull.jpg,1,1,678.3414596699644,None,None,678.3414596699644,None,673.0005345999962,675.7581298999721,675.4927429000381,None,0.07774045099535942,676.0088819999946,None,676.0088819999946,None,676.9931984000141,None,676.9931984000141,None,left,0.9317827000049874,676.9931984000141,None,677.9816295000492,None,677.9816295000492,None,right,0.3407169000711292,677.9816295000492,None,-10.006986377775949,149.5416075490987,AdamFull,001,2021_Mar_30_1355,AB_pic_singleT2,2020.2.10,60.2183275764758,
AB,lag2,2,5,7,0.06000000005000003,0.02,0.3,main,0,19,19,19,platypus.jpg,porcupine.jpg,butterfly.jpg,doghouse.jpg,kangaroo.jpg,steeringwheel.jpg,eye.jpg,tennisracket.jpg,saltshaker03a.jpg,chefshat.jpg,bathtub.jpg,ladder.jpg,mailbox02.jpg,discoball.jpg,rose.jpg,lighthouse.jpg,toucan.jpg,1,1,9,.\resources\eye.jpg,1,1,683.5902714699972,None,None,683.5902714699972,None,678.3424726000521,681.1064919000491,680.8406125999754,None,0.07618803171655826,681.3562717000023,None,681.3562717000023,None,682.3258448999841,None,682.3258448999841,None,left,0.7630369999678805,682.3258448999841,None,683.1472611000063,None,683.1472611000063,None,left,0.42701430001761764,683.1472611000063,None,-9.786960695200268,149.51282764496605,AdamFull,001,2021_Mar_30_1355,AB_pic_singleT2,2020.2.10,60.2183275764758,
AB,lag4,4,3,7,0.06000000005000003,0.02,0.3,main,0,20,20,20,spear02.jpg,birdhouse.jpg,exitsign.jpg,cross01.jpg,cannon.jpg,ostrich.jpg,witchhat.jpg,crosscountryski.jpg,hammerheadshark.jpg,worldmap.jpg,bull.jpg,scooter.jpg,saxophone.jpg,toilet.jpg,smokingpipe.jpg,moon.jpg,anchor.jpg,0,1,9,.\resources\witchhat.jpg,1,1,688.8720863699913,None,None,688.8720863699913,None,683.5917849000543,686.3549403999932,686.0890059999656,None,0.07473107981645714,686.5880426999647,None,686.5880426999647,None,687.5399321999867,None,687.5399321999867,None,right,1.0079744000686333,687.5399321999867,None,688.612721499987,None,688.612721499987,None,left,0.2404368999414146,688.612721499987,None,-9.576444591464016,149.48495303451233,AdamFull,001,2021_Mar_30_1355,AB_pic_singleT2,2020.2.10,60.2183275764758,
AB,lag7,7,5,12,0.06000000005000003,0.02,0.3,main,0,21,21,21,microphone01.jpg,boxingglove01.jpg,mattress.jpg,candycane01a.jpg,helicopter.jpg,pirateflag.jpg,drumstick.jpg,exitsign.jpg,bull.jpg,pig.jpg,dolphin01.jpg,electricguitar01.jpg,stubbywrench01a.jpg,locker.jpg,ant.jpg,beaver.jpg,slug.jpg,0,0,14,.\resources\electricguitar01.jpg,1,1,694.0864553700434,None,None,694.0864553700434,None,688.8758546999888,691.6369878000114,691.370533999987,None,0.07333673878235011,691.870213599992,None,691.870213599992,None,693.2957675000653,None,693.2957675000653,None,right,0.5078058999497443,693.2957675000653,None,693.8604568999726,None,693.8604568999726,None,right,0.2062830999493599,693.8604568999726,None,-9.372768207132005,149.4578365926671,AdamFull,001,2021_Mar_30_1355,AB_pic_singleT2,2020.2.10,60.2183275764758,
AB,lag6,6,5,11,0.06000000005000003,0.02,0.3,main,0,22,22,22,granolabar01.jpg,surfboard.jpg,soccerball.jpg,urinal.jpg,zebra.jpg,helicopter.jpg,africanelephant.jpg,shovel01.jpg,ear.jpg,ladder.jpg,candycane01a.jpg,hammerheadshark.jpg,footballhelmet.jpg,bull.jpg,stubbywrench01a.jpg,greatwhiteshark.jpg,cheetah.jpg,0,1,13,.\resources\candycane01a.jpg,1,1,699.2854965700302,None,None,699.2854965700302,None,694.0875962000573,696.8517359000398,696.5854785999982,None,0.0719872762347998,697.0852815000108,None,697.0852815000108,None,698.3857369000325,None,698.3857369000325,None,right,0.6018322000745684,698.3857369000325,None,699.0598741000285,None,699.0598741000285,None,left,0.20002760004717857,699.0598741000285,None,-9.174228179228214,149.43132901424258,AdamFull,001,2021_Mar_30_1355,AB_pic_singleT2,2020.2.10,60.2183275764758,
AB,lag7,7,5,12,0.06000000005000003,0.02,0.3,main,0,23,23,23,well.jpg,bridge.jpg,anchor.jpg,eye.jpg,exitsign.jpg,marble.jpg,fridge.jpg,tortoise01.jpg,ladybug03.jpg,pig.jpg,handcuffs.jpg,snowshoe.jpg,seagull.jpg,pingpongtable.jpg,popcorn.jpg,nosmokingsign.jpg,brownsugar.jpg,1,1,14,.\resources\snowshoe.jpg,1,1,705.8170249700546,None,None,705.8170249700546,None,699.288143599988,702.050419999985,701.784044799977,None,0.07067140880036984,702.2837444000179,None,702.2837444000179,None,703.6519188999664,None,703.6519188999664,None,left,1.4975282000377774,703.6519188999664,None,705.2199654000578,None,705.2199654000578,None,left,0.5736154000042006,705.2199654000578,None,-8.979655988427094,149.40529787671298,AdamFull,001,2021_Mar_30_1355,AB_pic_singleT2,2020.2.10,60.2183275764758,
AB,lag5,5,3,8,0.06000000005000003,0.02,0.3,main,0,24,24,24,hammerheadshark.jpg,tire.jpg,crab01.jpg,wheelbarrow01.jpg,rubikcube.jpg,hand01b.jpg,frenchfries.jpg,snowman.jpg,peacock.jpg,arrow02.jpg,skippingrope.jpg,bowtie.jpg,ladybug03.jpg,electrictoothbrush01c.jpg,steeringwheel.jpg,lily.jpg,worldmap.jpg,0,0,10,.\resources\snowman.jpg,1,1,710.4988814700395,None,None,710.4988814700395,None,705.8253891000059,708.5819148999872,708.3154434000608,None,0.06938141081249215,708.8156773999799,None,708.8156773999799,None,709.8198156000581,None,709.8198156000581,None,right,0.41305880004074425,709.8198156000581,None,710.2933246999746,None,710.2933246999746,None,right,0.17406839993782341,710.2933246999746,None,-8.788229244788711,149.3796312407366,AdamFull,001,2021_Mar_30_1355,AB_pic_singleT2,2020.2.10,60.2183275764758,
AB,lag3,3,3,6,0.06000000005000003,0.02,0.3,main,0,25,25,25,volleyball.jpg,toolbox02.jpg,worldmap.jpg,frisbee.jpg,church.jpg,dolphin01.jpg,redfox.jpg,toucan.jpg,sheep.jpg,acorn.jpg,parkfountain.jpg,fishingrod.jpg,pumpkin.jpg,ostrich.jpg,hand01b.jpg,honeybee.jpg,slug.jpg,1,0,8,.\resources\dolphin01.jpg,1,1,715.3159046700224,None,None,715.3159046700224,None,710.5009926999919,713.2642328999937,712.9973476000596,None,0.06811185381433689,713.4977681000018,None,713.4977681000018,None,714.2976807999657,None,714.2976807999657,None,left,0.7128587999613956,714.2976807999657,None,715.0759034999646,None,715.0759034999646,None,right,0.2085493999766186,715.0759034999646,None,-8.599367950723693,149.35423706085444,AdamFull,001,2021_Mar_30_1355,AB_pic_singleT2,2020.2.10,60.2183275764758,
AB,lag2,2,3,5,0.06000000005000003,0.02,0.3,main,0,26,26,26,eye.jpg,cow.jpg,candycane01a.jpg,swordfish.jpg,jeep.jpg,hockeystick.jpg,toyanimal05.jpg,platypus.jpg,rollerblade.jpg,moon.jpg,bowlingpin.jpg,airhockeytable.jpg,musicsheet.jpg,tulip02.jpg,lawnmower.jpg,honeybee.jpg,crown.jpg,1,1,7,.\resources\jeep.jpg,1,1,720.112822069996,None,None,720.112822069996,None,715.3163035999751,718.0789427000564,717.8128333999775,None,0.06685891547740237,718.3126889000414,None,718.3126889000414,None,719.0133527000435,None,719.0133527000435,None,left,0.8118445000145584,719.0133527000435,None,719.8908531999914,None,719.8908531999914,None,left,0.2016363999573514,719.8908531999914,None,-8.412668926886397,149.32904141696991,AdamFull,001,2021_Mar_30_1355,AB_pic_singleT2,2020.2.10,60.2183275764758,
AB,lag1,1,5,6,0.06000000005000003,0.02,0.3,main,0,27,27,27,foot.jpg,cat.jpg,cruiseship.jpg,car.jpg,shovel01.jpg,tarantula.jpg,lip.jpg,waterfountain02.jpg,bull.jpg,tree.jpg,squid.jpg,nunchuk.jpg,donut.jpg,butterfly.jpg,grizzly.jpg,eiffeltower.jpg,basketball01.jpg,0,0,8,.\resources\tarantula.jpg,1,1,724.7276816699654,None,None,724.7276816699654,None,720.1131405000342,722.8786644999636,722.6114099000115,None,0.06561994368292197,723.1124016999966,None,723.1124016999966,None,723.8947329999646,None,723.8947329999646,None,right,0.5645390000427142,723.8947329999646,None,724.5176293000113,None,724.5176293000113,None,right,0.1858316999860108,724.5176293000113,None,-8.22786124710536,149.3039864933649,AdamFull,001,2021_Mar_30_1355,AB_pic_singleT2,2020.2.10,60.2183275764758,
AB,lag4,4,5,9,0.06000000005000003,0.02,0.3,main,0,28,28,28,funnel.jpg,cheetah.jpg,kite.jpg,dromedary.jpg,foldingchair.jpg,hockeystick.jpg,butterfly.jpg,giraffe.jpg,parkfountain.jpg,arrow02.jpg,bluejay.jpg,safe.jpg,foot.jpg,horse.jpg,musicsheet.jpg,swordfish.jpg,mummy.jpg,0,0,11,.\resources\parkfountain.jpg,1,1,729.4766763699939,None,None,729.4766763699939,None,724.7304990000557,727.4931885000551,727.2263196000131,None,0.06439316078578053,727.7270688000135,None,727.7270688000135,None,728.7436382999877,None,728.7436382999877,None,right,0.4707020000787452,728.7436382999877,None,729.2831364000449,None,729.2831364000449,None,right,0.16215320001356304,729.2831364000449,None,-8.044774901977698,149.27902863321566,AdamFull,001,2021_Mar_30_1355,AB_pic_singleT2,2020.2.10,60.2183275764758,
AB,lag3,3,4,7,0.06000000005000003,0.02,0.3,main,0,29,29,29,trumpet.jpg,chimney.jpg,seal.jpg,saxophone.jpg,cashregister01.jpg,sausage.jpg,hotdogweiner.jpg,tire.jpg,lion.jpg,drumset.jpg,statue.jpg,smokingpipe.jpg,rollerblade.jpg,bullet.jpg,bull.jpg,ducttape.jpg,ant.jpg,0,1,9,.\resources\hotdogweiner.jpg,1,1,734.2587258700281,None,None,734.2587258700281,None,729.4771088999696,732.2416269000387,731.9756687000627,None,0.06317745599932922,732.4760491000488,None,732.4760491000488,None,733.32568670006,None,733.32568670006,None,right,0.6704282000428066,733.32568670006,None,734.0670115000103,None,734.0670115000103,None,left,0.17488910001702607,734.0670115000103,None,-7.8633185173691,149.25413659331215,AdamFull,001,2021_Mar_30_1355,AB_pic_singleT2,2020.2.10,60.2183275764758,
AB,lag1,1,4,5,0.06000000005000003,0.02,0.3,main,0,30,30,30,anchor.jpg,hammerheadshark.jpg,bed.jpg,porcupine.jpg,zipper.jpg,pigeon.jpg,fortunecookie.jpg,curtain.jpg,microwave.jpg,rose.jpg,slug.jpg,frenchfries.jpg,chefshat.jpg,trophy01.jpg,snowshovel.jpg,accordion01.jpg,kite.jpg,0,0,7,.\resources\zipper.jpg,1,1,738.6905328699853,None,None,738.6905328699853,None,734.2602542999666,737.0235293000005,736.756785399979,None,0.061972238020393006,737.2577083000215,None,737.2577083000215,None,737.9245186999906,None,737.9245186999906,None,right,0.5324163000332192,737.9245186999906,None,738.5164247000357,None,738.5164247000357,None,right,0.15588130010291934,738.5164247000357,None,-7.683463593299149,149.22929004261385,AdamFull,001,2021_Mar_30_1355,AB_pic_singleT2,2020.2.10,60.2183275764758,
AB,lag4,4,5,9,0.06000000005000003,0.02,0.3,main,0,31,31,31,snowshoe.jpg,lawnmower.jpg,trumpet.jpg,hulahoop.jpg,bull.jpg,kite.jpg,greathornowl.jpg,cloud.jpg,drumset.jpg,greatwhiteshark.jpg,acorn.jpg,tortoise01.jpg,basketball01.jpg,flag.jpg,mrpotatohead.jpg,stool01.jpg,parkfountain.jpg,0,0,11,.\resources\drumset.jpg,1,1,743.3390117700677,None,None,743.3390117700677,None,738.6899638000177,741.4555419000098,741.1902173999697,None,0.06077733099064589,741.6894230999751,None,741.6894230999751,None,742.6727632000111,None,742.6727632000111,None,right,0.4255907000042498,742.6727632000111,None,743.1658517000033,None,743.1658517000033,None,right,0.15746100002434105,743.1658517000033,None,-7.50523356632791,149.20447831138293,AdamFull,001,2021_Mar_30_1355,AB_pic_singleT2,2020.2.10,60.2183275764758,
AB,lag6,6,3,9,0.06000000005000003,0.02,0.3,main,0,32,32,32,firehydrant.jpg,slug.jpg,funnel.jpg,toolbox02.jpg,magneticcompass.jpg,drumstick.jpg,icecube02.jpg,mummy.jpg,pumpkin.jpg,callbell.jpg,spiderweb.jpg,safe.jpg,witchhat.jpg,jeans01.jpg,shovel01.jpg,punchingbag.jpg,skippingrope.jpg,1,1,11,.\resources\pumpkin.jpg,1,1,748.4058089699596,None,None,748.4058089699596,None,743.341432300047,746.1045828000642,745.8377365000779,None,0.0595929024924546,746.3389494000003,None,746.3389494000003,None,747.3058366000187,None,747.3058366000187,None,left,0.8323134999955073,747.3058366000187,None,748.2049589999951,None,748.2049589999951,None,left,0.17386009998153895,748.2049589999951,None,-7.328696463350686,149.17969937915,AdamFull,001,2021_Mar_30_1355,AB_pic_singleT2,2020.2.10,60.2183275764758,
AB,lag2,2,3,5,0.06000000005000003,0.02,0.3,main,0,33,33,33,tulip02.jpg,dandelion.jpg,rubikcube.jpg,recyclingbin.jpg,golfball.jpg,flag.jpg,wheelchair.jpg,christmaslights.jpg,dolphin01.jpg,acorn.jpg,noparkingsign.jpg,nunchuk.jpg,greatwhiteshark.jpg,acousticguitar02.jpg,elbow.jpg,statue.jpg,waterfall.jpg,1,0,7,.\resources\golfball.jpg,1,1,752.9526758700143,None,None,752.9526758700143,None,748.4068849000614,751.1705322000198,750.9037775000324,None,0.058419415381183025,751.4036209000042,None,751.4036209000042,None,752.0370782000246,None,752.0370782000246,None,left,0.6565094999969006,752.0370782000246,None,752.7676687000785,None,752.7676687000785,None,right,0.16365080000832677,752.7676687000785,None,-7.153960188710109,149.1549590795779,AdamFull,001,2021_Mar_30_1355,AB_pic_singleT2,2020.2.10,60.2183275764758,
AB,lag5,5,4,9,0.06000000005000003,0.02,0.3,main,0,34,34,34,acousticguitar02.jpg,dartboard.jpg,football.jpg,hotdogweiner.jpg,seal.jpg,lion.jpg,snowman.jpg,waterfall.jpg,corn02.jpg,eye.jpg,fishskeleton.jpg,urinal.jpg,tent.jpg,badmintonracket.jpg,horseshoe.jpg,dreamcatcher.jpg,tarantula.jpg,0,0,11,.\resources\corn02.jpg,1,1,757.5683300699806,None,None,757.5683300699806,None,752.9522819999838,755.7013958999887,755.4520447000396,None,0.05725759708246482,755.9518650000682,None,755.9518650000682,None,756.8853535000235,None,756.8853535000235,None,right,0.479014000040479,756.8853535000235,None,757.4286030000076,None,757.4286030000076,None,right,0.12206710001919419,757.4286030000076,None,-6.981169653667865,149.13027049411005,AdamFull,001,2021_Mar_30_1355,AB_pic_singleT2,2020.2.10,60.2183275764758,
AB,lag7,7,5,12,0.06000000005000003,0.02,0.3,main,0,35,35,35,basketball01.jpg,wallclock.jpg,bull.jpg,greatwhiteshark.jpg,tortoise01.jpg,bat.jpg,leafrake.jpg,sandcastle.jpg,lawnmower.jpg,squirrel.jpg,masquerademask01.jpg,rollerblade.jpg,ironingboard01.jpg,trumpet.jpg,tricycle.jpg,table01.jpg,peacock.jpg,1,0,14,.\resources\rollerblade.jpg,1,1,762.5005622700322,None,None,762.5005622700322,None,757.5704996000277,760.3333341999678,760.0669668000191,None,0.05610842109428234,760.568111200002,None,760.568111200002,None,761.7172604000662,None,761.7172604000662,None,left,0.490423500072211,761.7172604000662,None,762.2788456999697,None,762.2788456999697,None,right,0.19055110006593168,762.2788456999697,None,-6.81050505835102,149.10565350214995,AdamFull,001,2021_Mar_30_1355,AB_pic_singleT2,2020.2.10,60.2183275764758,
AB,lag5,5,5,10,0.06000000005000003,0.02,0.3,main,0,36,36,36,leafblower01.jpg,tent.jpg,sausage.jpg,motorcycle.jpg,totempole.jpg,snowshovel.jpg,fridge.jpg,ladder.jpg,frisbee.jpg,tricycle.jpg,horseshoe.jpg,penguin.jpg,fortunecookie.jpg,foosballtable.jpg,cocktailshrimp02.jpg,banjo.jpg,nosmokingsign.jpg,1,0,12,.\resources\tricycle.jpg,1,1,767.2484418700682,None,None,767.2484418700682,None,762.5048455999931,765.2654709999915,764.999763000058,None,0.054973096102977216,765.5157159999944,None,765.5157159999944,None,766.500878800056,None,766.500878800056,None,left,0.4830783000215888,766.500878800056,None,767.0598148000427,None,767.0598148000427,None,right,0.16415920003782958,767.0598148000427,None,-6.642180693459115,149.08113445219416,AdamFull,001,2021_Mar_30_1355,AB_pic_singleT2,2020.2.10,60.2183275764758,
AB,lag7,7,3,10,0.06000000005000003,0.02,0.3,main,0,37,37,37,greywolf.jpg,cannon.jpg,witchhat.jpg,surfboard.jpg,skippingrope.jpg,birdfeeder.jpg,beerbottle.jpg,armadillo.jpg,toolbox02.jpg,noparkingsign.jpg,seal.jpg,chair.jpg,hotdogweiner.jpg,cymbal.jpg,basketball01.jpg,moose.jpg,sink.jpg,1,1,12,.\resources\noparkingsign.jpg,1,1,772.197910370049,None,None,772.197910370049,None,767.251497899997,770.0140237000305,769.7484014000511,None,0.05385305849784431,770.2644327000016,None,770.2644327000016,None,771.2324451999739,None,771.2324451999739,None,left,0.7086116999853402,771.2324451999739,None,772.016247499967,None,772.016247499967,None,left,0.16410089994315058,772.016247499967,None,-6.47644365819442,149.05674591546898,AdamFull,001,2021_Mar_30_1355,AB_pic_singleT2,2020.2.10,60.2183275764758,
AB,lag4,4,3,7,0.06000000005000003,0.02,0.3,main,0,38,38,38,cupcake.jpg,toad.jpg,toolbox02.jpg,safe.jpg,windmill.jpg,tank.jpg,bat.jpg,greywolf.jpg,bench01.jpg,whiteout.jpg,bacon.jpg,showerhead01.jpg,pigeon.jpg,porcupine.jpg,lip.jpg,tiger02.jpg,cruiseship.jpg,0,0,9,.\resources\bat.jpg,1,1,776.5968540700618,None,None,776.5968540700618,None,772.1981019000523,774.9625583000015,774.695957900025,None,0.052749964257057635,775.1959750000387,None,775.1959750000387,None,775.9304303000681,None,775.9304303000681,None,right,0.39120670000556856,775.9304303000681,None,776.3914452000754,None,776.3914452000754,None,right,0.18834699993021786,776.3914452000754,None,-6.313571908351593,149.0325264809938,AdamFull,001,2021_Mar_30_1355,AB_pic_singleT2,2020.2.10,60.2183275764758,
AB,lag3,3,5,8,0.06000000005000003,0.02,0.3,main,0,39,39,39,statue.jpg,calendar.jpg,jellyfish.jpg,mouse.jpg,fishingrod.jpg,church.jpg,ostrich.jpg,safe.jpg,fortunecookie.jpg,bull.jpg,stool01.jpg,christmaslights.jpg,nosmokingsign.jpg,crosscountryski.jpg,sword01.jpg,arrow02.jpg,kneepad01c.jpg,0,0,10,.\resources\safe.jpg,1,1,781.0292415700154,None,None,781.0292415700154,None,776.5990494000725,779.3617389000719,779.0953926000511,None,0.05166567628747441,779.5947309000185,None,779.5947309000185,None,780.3959561999654,None,780.3959561999654,None,right,0.4016539000440389,780.3959561999654,None,780.8766879000468,None,780.8766879000468,None,right,0.133241800009273,780.8766879000468,None,-6.153871074278979,149.00852054880139,AdamFull,001,2021_Mar_30_1355,AB_pic_singleT2,2020.2.10,60.2183275764758,
AB,lag2,2,4,6,0.06000000005000003,0.02,0.3,main,0,40,40,40,bathtub.jpg,scorpion.jpg,pingpongtable.jpg,ducttape.jpg,xylophone.jpg,humanskeleton.jpg,cashregister01.jpg,microwave.jpg,birdhouse.jpg,rubikcube.jpg,donut.jpg,grizzly.jpg,floorlamp.jpg,golfball.jpg,dormer.jpg,snowshoe.jpg,parachute.jpg,0,1,8,.\resources\humanskeleton.jpg,1,1,786.5762829700019,None,None,786.5762829700019,None,781.030023099971,783.7937766000396,783.526680400013,None,0.0506022434665366,784.026426800061,None,784.026426800061,None,784.6766535000643,None,784.6766535000643,None,right,1.6653263000771403,784.6766535000643,None,786.4045416000299,None,786.4045416000299,None,left,0.15139620006084442,786.4045416000299,None,-5.997669546866474,148.9847780769229,AdamFull,001,2021_Mar_30_1355,AB_pic_singleT2,2020.2.10,60.2183275764758,
AB,lag1,1,4,5,0.06000000005000003,0.02,0.3,main,0,41,41,41,cloud.jpg,stool01.jpg,crown.jpg,nosmokingsign.jpg,donut.jpg,rose.jpg,chair.jpg,electrictoothbrush01c.jpg,arrow02.jpg,cashregister01.jpg,ironingboard01.jpg,cocktailshrimp02.jpg,fortunecookie.jpg,cow.jpg,drumstick.jpg,waterfall.jpg,chefshat.jpg,1,1,7,.\resources\donut.jpg,1,1,791.1754034700338,None,None,791.1754034700338,None,786.5757623000536,789.3251382000744,789.0756644000066,None,0.04956186801965716,789.5755117000081,None,789.5755117000081,None,790.1430257000029,None,790.1430257000029,None,left,0.7936316999839619,790.1430257000029,None,791.0063891999889,None,791.0063891999889,None,left,0.14765910001005977,791.0063891999889,None,-5.845311447208259,148.96135423849725,AdamFull,001,2021_Mar_30_1355,AB_pic_singleT2,2020.2.10,60.2183275764758,
AB,lag6,6,5,11,0.06000000005000003,0.02,0.3,main,0,42,42,42,ducttape.jpg,ear.jpg,marble.jpg,paperairplane.jpg,sink.jpg,giraffe.jpg,cow.jpg,sausage.jpg,dromedary.jpg,anchor.jpg,toad.jpg,jackrabbit.jpg,treadmill.jpg,brownsugar.jpg,toucan.jpg,redfox.jpg,rose.jpg,1,0,13,.\resources\toad.jpg,1,1,795.9068567700218,None,None,795.9068567700218,None,791.1768033000408,793.9403879999882,793.6737499000737,None,0.048546858648652304,794.1740171000129,None,794.1740171000129,None,795.1406010000501,None,795.1406010000501,None,left,0.515048100030981,795.1406010000501,None,795.7261153999716,None,795.7261153999716,None,right,0.15584799996577203,795.7261153999716,None,-5.697147294655324,148.93830894912767,AdamFull,001,2021_Mar_30_1355,AB_pic_singleT2,2020.2.10,60.2183275764758,
AB,lag5,5,5,10,0.06000000005000003,0.02,0.3,main,0,43,43,43,skateboard.jpg,frenchfries.jpg,armadillo.jpg,tulip02.jpg,parachute.jpg,cork02.jpg,tricycle.jpg,key07.jpg,rose.jpg,lily.jpg,lighthouse.jpg,holdfast.jpg,daddylonglegs.jpg,cobra.jpg,airhockeytable.jpg,foot.jpg,chair.jpg,0,0,12,.\resources\lily.jpg,1,1,801.2551300700055,None,None,801.2551300700055,None,795.9097753000678,798.6725984000368,798.4065218999749,None,0.04755956815781144,798.906170399976,None,798.906170399976,None,799.7903747999808,None,799.7903747999808,None,right,0.6306881000055,799.7903747999808,None,800.487595600076,None,800.487595600076,None,right,0.7399236001074314,800.487595600076,None,-5.553522477858594,148.91570623253733,AdamFull,001,2021_Mar_30_1355,AB_pic_singleT2,2020.2.10,60.2183275764758,
AB,lag7,7,5,12,0.06000000005000003,0.02,0.3,main,0,44,44,44,curtain.jpg,birdnest.jpg,ladder.jpg,jackrabbit.jpg,brownsugar.jpg,windshieldwiper02.jpg,cow.jpg,key07.jpg,panda.jpg,masquerademask01.jpg,swordfish.jpg,lizard.jpg,rollerblade.jpg,chainsaw.jpg,bacon.jpg,recyclingbin.jpg,lily.jpg,0,0,14,.\resources\lizard.jpg,1,1,806.037827169965,None,None,806.037827169965,None,801.2551281000488,804.0048337000189,803.7542518000118,None,0.046602316267041075,804.2543033000547,None,804.2543033000547,None,805.2709886999801,None,805.2709886999801,None,right,0.42951709998305887,805.2709886999801,None,805.7785892999964,None,805.7785892999964,None,right,0.23260889993980527,805.7785892999964,None,-5.414763998996165,148.8936134053995,AdamFull,001,2021_Mar_30_1355,AB_pic_singleT2,2020.2.10,60.2183275764758,
AB,lag3,3,4,7,0.06000000005000003,0.02,0.3,main,0,45,45,45,toyanimal05.jpg,cow.jpg,athleticsock.jpg,electrictoothbrush01c.jpg,crown.jpg,frenchfries.jpg,fridge.jpg,trophy01.jpg,jeans01.jpg,bluejay.jpg,chefshat.jpg,statue.jpg,squirrel.jpg,tiger02.jpg,parkfountain.jpg,dromedary.jpg,bed.jpg,0,0,9,.\resources\fridge.jpg,1,1,810.5026099700248,None,None,810.5026099700248,None,806.0386363000143,808.8025797000155,808.5367889000336,None,0.04567730075566439,809.0367035999661,None,809.0367035999661,None,809.7043097000569,None,809.7043097000569,None,right,0.5202799999387935,809.7043097000569,None,810.3094347000588,None,810.3094347000588,None,right,0.16820149996783584,810.3094347000588,None,-5.281166354747617,148.87210008000588,AdamFull,001,2021_Mar_30_1355,AB_pic_singleT2,2020.2.10,60.2183275764758,
AB,lag2,2,5,7,0.06000000005000003,0.02,0.3,main,0,46,46,46,sandcastle.jpg,popcorn.jpg,tennisracket.jpg,football.jpg,whiteout.jpg,smokingpipe.jpg,cupcake.jpg,candycane01a.jpg,eiffeltower.jpg,airhockeytable.jpg,pokerchips.jpg,makiroll.jpg,statue.jpg,turnstile.jpg,greywolf.jpg,jeep.jpg,greatwhiteshark.jpg,0,1,9,.\resources\cupcake.jpg,1,1,815.2848776699742,None,None,815.2848776699742,None,810.5035235000541,813.2520051000174,813.0020073000342,None,0.04478650272471688,813.5021613000426,None,813.5021613000426,None,814.1689387999941,None,814.1689387999941,None,right,0.8395400999579579,814.1689387999941,None,815.0858757999958,None,815.0858757999958,None,left,0.17241679993458092,815.0858757999958,None,-5.1529777585639716,148.85123700502416,AdamFull,001,2021_Mar_30_1355,AB_pic_singleT2,2020.2.10,60.2183275764758,
AB,lag6,6,5,11,0.06000000005000003,0.02,0.3,main,0,47,47,47,athleticsock.jpg,jellyfish.jpg,airhockeytable.jpg,cocktailshrimp02.jpg,dromedary.jpg,tire.jpg,pumpkin.jpg,parrot01.jpg,exitsign.jpg,chefshat.jpg,tent.jpg,duck01.jpg,chainsaw.jpg,pokerchips.jpg,cashregister01.jpg,harmonica.jpg,lily.jpg,0,0,13,.\resources\tent.jpg,1,1,820.3839660699945,None,None,820.3839660699945,None,815.285625700024,818.050349200028,817.7839440000243,None,0.043931594061681484,818.2840082000475,None,818.2840082000475,None,819.1840494000353,None,819.1840494000353,None,right,0.8463601999683306,819.1840494000353,None,820.1102606999921,None,820.1102606999921,None,right,0.25246720004361123,820.1102606999921,None,-5.030388100196904,148.83109478744248,AdamFull,001,2021_Mar_30_1355,AB_pic_singleT2,2020.2.10,60.2183275764758,
AB,lag1,1,4,5,0.06000000005000003,0.02,0.3,main,0,48,48,48,lion.jpg,elbow.jpg,football.jpg,pirateflag.jpg,steeringwheel.jpg,callbell.jpg,triangle.jpg,helicopter.jpg,parkingmeter.jpg,cross01.jpg,hockeystick.jpg,birthdaycandle.jpg,nose.jpg,pooltable.jpg,bumpercar.jpg,floorlamp.jpg,wheelbarrow01.jpg,1,0,7,.\resources\steeringwheel.jpg,1,1,825.6816849700175,None,None,825.6816849700175,None,820.3863612000132,823.1489343000576,822.882383499993,None,0.043113856485978076,823.3816472999752,None,823.3816472999752,None,823.8991183000617,None,823.8991183000617,None,left,1.3549047000706196,823.8991183000617,None,825.3578107999638,None,825.3578107999638,None,right,0.30860799993388355,825.3578107999638,None,-4.913519996306299,148.81174255924898,AdamFull,001,2021_Mar_30_1355,AB_pic_singleT2,2020.2.10,60.2183275764758,
AB,lag4,4,3,7,0.06000000005000003,0.02,0.3,main,0,49,49,49,accordion01.jpg,hulahoop.jpg,porcupine.jpg,statue.jpg,treadmill.jpg,crab01.jpg,volleyball.jpg,whiteout.jpg,telescope.jpg,ostrich.jpg,mrpotatohead.jpg,skunk.jpg,ladder.jpg,lightswitch01.jpg,key07.jpg,slug.jpg,basketball01.jpg,0,0,9,.\resources\volleyball.jpg,1,1,830.1307138700271,None,None,830.1307138700271,None,825.6819480999839,828.4464303000132,828.1807638000464,None,0.04233412128023389,828.6803191000363,None,828.6803191000363,None,829.3143338999944,None,829.3143338999944,None,right,0.47828979999758303,829.3143338999944,None,829.8784919000464,None,829.8784919000464,None,right,0.23539080005139112,829.8784919000464,None,-4.802423975862785,148.79324666630703,AdamFull,001,2021_Mar_30_1355,AB_pic_singleT2,2020.2.10,60.2183275764758,
AB,lag3,3,4,7,0.06000000005000003,0.02,0.3,main,0,50,50,50,butterfly.jpg,banjo.jpg,mouse.jpg,escalator.jpg,smokingpipe.jpg,moose.jpg,musicsheet.jpg,stool01.jpg,dreamcatcher.jpg,mrpotatohead.jpg,magneticcompass.jpg,trampoline.jpg,uprightpiano01.jpg,grizzly.jpg,well.jpg,cloud.jpg,floorlamp.jpg,1,0,9,.\resources\musicsheet.jpg,1,1,835.5790387700312,None,None,835.5790387700312,None,830.1299876000267,832.8792166999774,832.6293558999896,None,0.041592736737991076,833.1297350999666,None,833.1297350999666,None,833.7643166000489,None,833.7643166000489,None,left,1.2254071000497788,833.7643166000489,None,835.0668449000223,None,835.0668449000223,None,right,0.48224799998570234,835.0668449000223,None,-4.697078307019215,148.7756694608362,AdamFull,001,2021_Mar_30_1355,AB_pic_singleT2,2020.2.10,60.2183275764758,
AB,lag7,7,5,12,0.06000000005000003,0.02,0.3,main,0,51,51,51,bow.jpg,frenchfries.jpg,escalator.jpg,arrow02.jpg,sword01.jpg,electricguitar01.jpg,statue.jpg,toad.jpg,cymbal.jpg,mattress.jpg,eiffeltower.jpg,athleticsock.jpg,coffeemaker.jpg,sandcastle.jpg,birdnest.jpg,donut.jpg,duck01.jpg,0,0,14,.\resources\athleticsock.jpg,1,0,840.7941893699812,None,None,840.7941893699812,None,835.5833249000134,838.3443496000255,838.0776026999811,None,0.04088956675634719,838.5773916000035,None,838.5773916000035,None,839.4950043000281,None,839.4950043000281,None,right,0.9745238999603316,839.4950043000281,None,840.5490273999749,None,840.5490273999749,None,left,0.22303450002800673,840.5490273999749,None,-4.597393322975132,148.75906827134165,AdamFull,001,2021_Mar_30_1355,AB_pic_singleT2,2020.2.10,60.2183275764758,
AB,lag1,1,5,6,0.06000000005000003,0.02,0.3,main,0,52,52,52,trampoline.jpg,chair.jpg,sink.jpg,porcupine.jpg,tulip02.jpg,stool01.jpg,cow.jpg,cashregister01.jpg,vulture.jpg,foldingchair.jpg,steeringwheel.jpg,cymbal.jpg,greathornowl.jpg,licenseplate.jpg,triangle.jpg,parrot01.jpg,birdhouse.jpg,0,0,8,.\resources\stool01.jpg,1,1,845.3425206700107,None,None,845.3425206700107,None,840.795333600021,843.5584759999765,843.2926040000748,None,0.04022401964215433,843.7928291000426,None,843.7928291000426,None,844.3427973999642,None,844.3427973999642,None,right,0.72659289999865,844.3427973999642,None,845.1456387999933,None,845.1456387999933,None,right,0.17174689995590597,845.1456387999933,None,-4.5032194975357775,148.74349460580905,AdamFull,001,2021_Mar_30_1355,AB_pic_singleT2,2020.2.10,60.2183275764758,
AB,lag4,4,4,8,0.06000000005000003,0.02,0.3,main,0,53,53,53,pig.jpg,hotdogweiner.jpg,dromedary.jpg,alligator.jpg,chainsaw.jpg,dolphin01.jpg,raccoon.jpg,marble.jpg,lion.jpg,stool01.jpg,surfboard.jpg,xylophone.jpg,spear02.jpg,toucan.jpg,holdfast.jpg,candycane01a.jpg,redfox.jpg,0,0,10,.\resources\marble.jpg,1,1,850.9242425700417,None,None,850.9242425700417,None,845.3486085999757,848.1076892999699,847.8412158000283,None,0.03959510212035625,848.3416822999716,None,848.3416822999716,None,849.0087098999647,None,849.0087098999647,None,right,1.6004079000558704,849.0087098999647,None,850.6808861000463,None,850.6808861000463,None,right,0.2144167999504134,850.6808861000463,None,-4.414358096673801,148.72899361890146,AdamFull,001,2021_Mar_30_1355,AB_pic_singleT2,2020.2.10,60.2183275764758,
AB,lag6,6,5,11,0.06000000005000003,0.02,0.3,main,0,54,54,54,birdfeeder.jpg,urinal.jpg,foosballtable.jpg,skunk.jpg,platypus.jpg,cruiseship.jpg,birdhouse.jpg,seal.jpg,moon.jpg,helicopter.jpg,toolbox02.jpg,banjo.jpg,jellybean.jpg,slug.jpg,skateboard.jpg,crab01.jpg,rooster.jpg,0,1,13,.\resources\toolbox02.jpg,1,1,858.7387984699802,None,None,858.7387984699802,None,850.9237695999909,853.6736535000382,853.4235279000131,None,0.03900149067543013,853.9242613000097,None,853.9242613000097,None,854.7585001999978,None,854.7585001999978,None,right,3.7392585000488907,854.7585001999978,None,858.5846075000009,None,858.5846075000009,None,left,0.12551759998314083,858.5846075000009,None,-4.33057306799674,148.7156038468218,AdamFull,001,2021_Mar_30_1355,AB_pic_singleT2,2020.2.10,60.2183275764758,
AB,lag2,2,4,6,0.06000000005000003,0.02,0.3,main,0,55,55,55,funnel.jpg,calendar.jpg,leafrake.jpg,electrictoothbrush01c.jpg,accordion01.jpg,corn02.jpg,totempole.jpg,bowlingpin.jpg,ladder.jpg,mattress.jpg,armadillo.jpg,paperairplane.jpg,candycane01a.jpg,barrel01.jpg,popcorn.jpg,ladybug03.jpg,toyanimal05.jpg,0,0,8,.\resources\corn02.jpg,1,0,863.3541278700344,None,None,863.3541278700344,None,858.7391962000402,861.504431999987,861.2388042999664,None,0.03844161124480957,861.754471900058,None,861.754471900058,None,862.2880470000673,None,862.2880470000673,None,right,0.838685299968347,862.2880470000673,None,863.2037522000028,None,863.2037522000028,None,left,0.11872899997979403,863.2037522000028,None,-4.251602920953937,148.7033571893072,AdamFull,001,2021_Mar_30_1355,AB_pic_singleT2,2020.2.10,60.2183275764758,
AB,lag5,5,4,9,0.06000000005000003,0.02,0.3,main,0,56,56,56,magneticcompass.jpg,grizzly.jpg,lip.jpg,leafrake.jpg,englishcucumber.jpg,foldingchair.jpg,eyepatch.jpg,birdnest.jpg,banjo.jpg,dromedary.jpg,raccoon.jpg,corn02.jpg,basketball01.jpg,donut.jpg,fireplace.jpg,kangaroo.jpg,spicerack.jpg,0,0,11,.\resources\banjo.jpg,1,1,867.887363770022,None,None,867.887363770022,None,863.3538014000515,866.1191225000657,865.8525940000545,None,0.03791371888730453,866.3527609000448,None,866.3527609000448,None,867.0543327999767,None,867.0543327999767,None,right,0.5652518999995664,867.0543327999767,None,867.6920624000486,None,867.6920624000486,None,right,0.17635069997049868,867.6920624000486,None,-4.177171625045783,148.69227910054934,AdamFull,001,2021_Mar_30_1355,AB_pic_singleT2,2020.2.10,60.2183275764758,
AB,lag2,2,3,5,0.06000000005000003,0.02,0.3,main,0,57,57,57,jackrabbit.jpg,acorn.jpg,firehydrant.jpg,kite.jpg,grizzly.jpg,vulture.jpg,punchingbag.jpg,turnstile.jpg,platypus.jpg,fingerprint.jpg,parkingmeter.jpg,seagull.jpg,coffeemaker.jpg,tent.jpg,bowlingball.jpg,stool01.jpg,accordion01.jpg,0,0,7,.\resources\grizzly.jpg,1,1,872.2524870700203,None,None,872.2524870700203,None,867.8926591000054,870.6516043000156,870.4022469000192,None,0.037415970888465044,870.9020195000339,None,870.9020195000339,None,871.3680530000711,None,871.3680530000711,None,right,0.6616073000477627,871.3680530000711,None,872.118708700058,None,872.118708700058,None,right,0.11708080000244081,872.118708700058,None,-4.106997909508454,148.68238894126884,AdamFull,001,2021_Mar_30_1355,AB_pic_singleT2,2020.2.10,60.2183275764758,
AB,lag6,6,5,11,0.06000000005000003,0.02,0.3,main,0,58,58,58,parkfountain.jpg,toad.jpg,callbell.jpg,guitarcase.jpg,bench01.jpg,tie02.jpg,eiffeltower.jpg,nosmokingsign.jpg,parachute.jpg,dormer.jpg,fishingrod.jpg,bull.jpg,dandelion.jpg,leafblower01.jpg,toolbox02.jpg,granolabar01.jpg,scooter.jpg,0,1,13,.\resources\fishingrod.jpg,1,1,876.9253698000684,None,space,876.9253698000684,None,872.2574505000375,875.0168597999727,874.749862800003,None,0.03694648915547258,875.2502365000546,None,875.2502365000546,None,876.0508059000131,None,876.0508059000131,None,right,0.566060799988918,876.0508059000131,None,876.6953038000502,None,876.6953038000502,None,left,0.15443170000799,876.6953038000502,None,-4.040802692978472,148.67370044222247,288.0297685000114,AdamFull,001,2021_Mar_30_1355,AB_pic_singleT2,2020.2.10,60.2183275764758,
AB,lag7,7,4,11,0.06000000005000003,0.02,0.3,main,0,59,59,59,chefshat.jpg,tulip02.jpg,fishskeleton.jpg,rollerblade.jpg,beaver.jpg,bluecheese.jpg,jeans01.jpg,hockeypuck.jpg,dragonfly01.jpg,skateboard.jpg,lizard.jpg,accordion01.jpg,spicerack.jpg,birthdaycandle.jpg,escalator.jpg,parachute.jpg,soccerball.jpg,0,1,13,.\resources\lizard.jpg,1,1,1170.8307593699778,None,None,1170.8307593699778,None,1164.9904242000775,1167.748166400008,1167.4815828000428,None,0.036503410071557614,1167.9813992000418,None,1167.9813992000418,None,1168.7853951000143,None,1168.7853951000143,None,right,1.1070586999412626,1168.7853951000143,None,1169.966717000003,None,1169.966717000003,None,left,0.8420145000563934,1169.966717000003,None,-3.978314645233275,148.66622223335415,AdamFull,001,2021_Mar_30_1355,AB_pic_singleT2,2020.2.10,60.2183275764758,
AB,lag5,5,3,8,0.06000000005000003,0.02,0.3,main,0,60,60,60,parkingmeter.jpg,lip.jpg,christmastree.jpg,paperairplane.jpg,anchor.jpg,penguin.jpg,boxingglove01.jpg,tennisracket.jpg,table01.jpg,rollerblade.jpg,motorcycle.jpg,wheelchair.jpg,microphone01.jpg,crosscountryski.jpg,recyclingbin.jpg,chainsaw.jpg,coffeemaker.jpg,0,0,10,.\resources\tennisracket.jpg,1,1,1175.330354470038,None,None,1175.330354470038,None,1170.8348940999713,1173.597038900014,1173.3302450000774,None,0.03608492181857288,1173.8300021999748,None,1173.8300021999748,None,1174.4636819000589,None,1174.4636819000589,None,right,0.6180896000005305,1174.4636819000589,None,1175.1504301000386,None,1175.1504301000386,None,right,0.15794579999055713,1175.1504301000386,None,-3.9192740625422133,148.65995840026903,AdamFull,001,2021_Mar_30_1355,AB_pic_singleT2,2020.2.10,60.2183275764758,
AB,lag3,3,5,8,0.06000000005000003,0.02,0.3,main,0,61,61,61,lollipop04.jpg,mrpotatohead.jpg,marble.jpg,ostrich.jpg,vulture.jpg,parrot01.jpg,crab01.jpg,shower.jpg,boat.jpg,hockeystick.jpg,snowman.jpg,hulahoop.jpg,bacon.jpg,wallclock.jpg,cruiseship.jpg,fortunecookie.jpg,eye.jpg,1,0,10,.\resources\shower.jpg,1,1,1179.8116584700533,None,None,1179.8116584700533,None,1175.3295006999979,1178.0781055999687,1177.8285639999667,None,0.03568929038293409,1178.3286441999953,None,1178.3286441999953,None,1178.9454144000774,None,1178.9454144000774,None,left,0.6791107000317425,1178.9454144000774,None,1179.6986262999708,None,1179.6986262999708,None,right,0.0911767000798136,1179.6986262999708,None,-3.863435329483112,148.65490903857994,AdamFull,001,2021_Mar_30_1355,AB_pic_singleT2,2020.2.10,60.2183275764758,
AB,lag4,4,5,9,0.06000000005000003,0.02,0.3,main,0,62,62,62,popcorn.jpg,footballhelmet.jpg,kite.jpg,bacon.jpg,granolabar01.jpg,frenchfries.jpg,kneepad01c.jpg,recyclingbin.jpg,cobra.jpg,africanelephant.jpg,dromedary.jpg,holdfast.jpg,xylophone.jpg,sheep.jpg,mailbox02.jpg,tortoise01.jpg,arrow02.jpg,0,1,11,.\resources\cobra.jpg,1,1,1184.4103062699783,None,None,1184.4103062699783,None,1179.8160403000657,1182.577183400048,1182.3104770000791,None,0.03531487607476559,1182.811995199998,None,1182.811995199998,None,1183.4778005999979,None,1183.4778005999979,None,right,0.7422017999924719,1183.4778005999979,None,1184.2964253000682,None,1184.2964253000682,None,left,0.09406439994927496,1184.2964253000682,None,-3.8105682644263363,148.6510707853187,AdamFull,001,2021_Mar_30_1355,AB_pic_singleT2,2020.2.10,60.2183275764758,
AB,lag1,1,3,4,0.06000000005000003,0.02,0.3,main,0,63,63,63,crab01.jpg,cymbal.jpg,toolbox02.jpg,penguin.jpg,moose.jpg,swing.jpg,eiffeltower.jpg,steeringwheel.jpg,waterfall.jpg,lawnmower.jpg,hockeystick.jpg,jellyfish.jpg,magneticcompass.jpg,callbell.jpg,drumset.jpg,foosballtable.jpg,skateboard.jpg,0,0,6,.\resources\penguin.jpg,1,1,1188.5760028699647,None,None,1188.5760028699647,None,1184.4137075999752,1187.175794800045,1186.9095921000699,None,0.03496014255458352,1187.4094211000483,None,1187.4094211000483,None,1187.809524100041,None,1187.809524100041,None,right,0.5432467000791803,1187.809524100041,None,1188.4266919000074,None,1188.4266919000074,None,right,0.12133039999753237,1188.4266919000074,None,-3.760458627780806,148.64843731414513,AdamFull,001,2021_Mar_30_1355,AB_pic_singleT2,2020.2.10,60.2183275764758,
AB,lag5,5,4,9,0.06000000005000003,0.02,0.3,main,0,64,64,64,cocktailshrimp02.jpg,car.jpg,baseballbat.jpg,spiderweb.jpg,barrel01.jpg,tricycle.jpg,parrot01.jpg,bowlingpin.jpg,motorcycle.jpg,pokerchips.jpg,vulture.jpg,fireplace.jpg,chefshat.jpg,spicerack.jpg,beerbottle.jpg,skippingrope.jpg,bacon.jpg,0,0,11,.\resources\motorcycle.jpg,0,1,1193.457837869972,None,None,1193.457837869972,None,1188.5817003999837,1191.3413749000756,1191.0747762999963,None,0.03462366024086646,1191.5758407000685,None,1191.5758407000685,None,1192.2417019000277,None,1192.2417019000277,None,left,0.9749625999247655,1192.2417019000277,None,1193.2948433000129,None,1193.2948433000129,None,right,0.134389300015755,1193.2948433000129,None,-3.929563923781973,148.63723908513856,AdamFull,001,2021_Mar_30_1355,AB_pic_singleT2,2020.2.10,60.2183275764758,
AB,lag4,4,3,7,0.06000000005000003,0.02,0.3,main,0,65,65,65,tricycle.jpg,baseballbat.jpg,funnel.jpg,dromedary.jpg,microwave.jpg,eiffeltower.jpg,waterfall.jpg,lighthouse.jpg,dormer.jpg,rose.jpg,church.jpg,tree.jpg,exitsign.jpg,swing.jpg,tank.jpg,pigeon.jpg,dolphin01.jpg,1,1,9,.\resources\waterfall.jpg,1,1,1197.9902327699588,None,None,1197.9902327699588,None,1193.458613499999,1196.2232086000731,1195.9566765000345,None,0.035763973534633335,1196.456744999974,None,1196.456744999974,None,1197.0243361999746,None,1197.0243361999746,None,left,0.7151014000410214,1197.0243361999746,None,1197.809609799995,None,1197.809609799995,None,left,0.15967670001555234,1197.809609799995,None,-3.919285216219732,148.6319684445326,AdamFull,001,2021_Mar_30_1355,AB_pic_singleT2,2020.2.10,60.2183275764758,
AB,lag7,7,3,10,0.06000000005000003,0.02,0.3,main,0,66,66,66,jeep.jpg,cupcake.jpg,scooter.jpg,electrictoothbrush01c.jpg,chimney.jpg,cocktailshrimp02.jpg,englishcucumber.jpg,ironingboard01.jpg,jellybean.jpg,marble.jpg,pingpongtable.jpg,surfboard.jpg,nose.jpg,porcupine.jpg,chair.jpg,beaver.jpg,makiroll.jpg,0,0,12,.\resources\marble.jpg,1,1,1202.3217199700653,None,None,1202.3217199700653,None,1197.993840900017,1200.755140400026,1200.4886493000668,None,0.035696086332326224,1200.9919299000176,None,1200.9919299000176,None,1201.7230125999777,None,1201.7230125999777,None,right,0.39371919992845505,1201.7230125999777,None,1202.1933271000162,None,1202.1933271000162,None,right,0.10050379997119308,1202.1933271000162,None,-3.8813605886539913,148.62852627334328,AdamFull,001,2021_Mar_30_1355,AB_pic_singleT2,2020.2.10,60.2183275764758,
AB,lag2,2,3,5,0.06000000005000003,0.02,0.3,main,0,67,67,67,trophy01.jpg,wheelchair.jpg,spear02.jpg,helicopter.jpg,dartboard.jpg,alligator.jpg,shovel01.jpg,bluecheese.jpg,crab01.jpg,stubbywrench01a.jpg,cymbal.jpg,xylophone.jpg,pooltable.jpg,hotdogweiner.jpg,escalator.jpg,sheep.jpg,safe.jpg,0,1,7,.\resources\dartboard.jpg,1,0,1206.6039176700638,None,None,1206.6039176700638,None,1202.3225564999739,1205.0871820000466,1204.8207315000473,None,0.0354417491840437,1205.3207143000327,None,1205.3207143000327,None,1205.771487900056,None,1205.771487900056,None,right,0.615793599979952,1205.771487900056,None,1206.4571478000144,None,1206.4571478000144,None,right,0.11802749999333173,1206.4571478000144,None,-3.840609879615164,148.6262126056851,AdamFull,001,2021_Mar_30_1355,AB_pic_singleT2,2020.2.10,60.2183275764758,
AB,lag6,6,4,10,0.06000000005000003,0.02,0.3,main,0,68,68,68,flamingo.jpg,knee.jpg,icecube02.jpg,chefshat.jpg,snowshoe.jpg,leafrake.jpg,slug.jpg,tarantula.jpg,chimney.jpg,steeringwheel.jpg,handcuffs.jpg,totempole.jpg,windmill.jpg,corn02.jpg,parrot01.jpg,donut.jpg,kneepad01c.jpg,1,0,12,.\resources\steeringwheel.jpg,1,1,1211.269159569964,None,None,1211.269159569964,None,1206.6062641000608,1209.369334200048,1209.102742100018,None,0.035168118389737664,1209.6062610000372,None,1209.6062610000372,None,1210.3366558999987,None,1210.3366558999987,None,left,0.7785857999697328,1210.3366558999987,None,1211.1893448000774,None,1211.1893448000774,None,right,0.05096100002992898,1211.1893448000774,None,-3.8007799499294714,148.624911982791,AdamFull,001,2021_Mar_30_1355,AB_pic_singleT2,2020.2.10,60.2183275764758,
AB,lag1,1,4,5,0.06000000005000003,0.02,0.3,main,0,69,69,69,ostrich.jpg,stubbywrench01a.jpg,dreamcatcher.jpg,microphone01.jpg,telescope.jpg,baseballbat.jpg,pooltable.jpg,flamingo.jpg,crown.jpg,eyepatch.jpg,spear02.jpg,handcuffs.jpg,cork02.jpg,ducttape.jpg,badmintonracket.jpg,dandelion.jpg,athleticsock.jpg,0,0,7,.\resources\telescope.jpg,1,1,1215.8187472700142,None,None,1215.8187472700142,None,1211.2713372000726,1214.0350158000365,1213.7683317000046,None,0.0349004365543373,1214.2680735000176,None,1214.2680735000176,None,1214.7185189999873,None,1214.7185189999873,None,right,0.8860782999545336,1214.7185189999873,None,1215.7115932999877,None,1215.7115932999877,None,right,0.08767559996340424,1215.7115932999877,None,-3.762356646715032,148.62459845734668,AdamFull,001,2021_Mar_30_1355,AB_pic_singleT2,2020.2.10,60.2183275764758,
AB,lag3,3,5,8,0.06000000005000003,0.02,0.3,main,0,70,70,70,saxophone.jpg,jeep.jpg,waterfountain02.jpg,marble.jpg,key07.jpg,snowshoe.jpg,crab01.jpg,mailbox02.jpg,lollipop04.jpg,helicopter.jpg,cloud.jpg,paperairplane.jpg,ladybug03.jpg,banjo.jpg,witchhat.jpg,worldmap.jpg,cheetah.jpg,0,0,10,.\resources\mailbox02.jpg,1,1,1220.367259970028,None,None,1220.367259970028,None,1215.8218902000226,1218.5832569000777,1218.316803200054,None,0.03464198430996951,1218.8166275999974,None,1218.8166275999974,None,1219.4340658000438,None,1219.4340658000438,None,right,0.7195666000479832,1219.4340658000438,None,1220.2363669000333,None,1220.2363669000333,None,right,0.10340300004463643,1220.2363669000333,None,-3.725345004654152,148.62525894472043,AdamFull,001,2021_Mar_30_1355,AB_pic_singleT2,2020.2.10,60.2183275764758,
AB,lag4,4,3,7,0.06000000005000003,0.02,0.3,main,0,71,71,71,mummy.jpg,scooter.jpg,tie02.jpg,peacock.jpg,frenchfries.jpg,spear02.jpg,masquerademask01.jpg,pooltable.jpg,fireplace.jpg,snowshoe.jpg,ironingboard01.jpg,rubikcube.jpg,jeans01.jpg,anchor.jpg,doghouse.jpg,bench01.jpg,bowlingball.jpg,0,1,9,.\resources\masquerademask01.jpg,0,1,1225.598484570021,None,None,1225.598484570021,None,1220.3708705999888,1223.1320560000604,1222.8654843000695,None,0.03439280376746231,1223.3654026000295,None,1223.3654026000295,None,1223.9160338999936,None,1223.9160338999936,None,left,1.1868804999394342,1223.9160338999936,None,1225.1819649999961,None,1225.1819649999961,None,left,0.3888302999548614,1225.1819649999961,None,-3.8638228246737807,148.61890363575802,AdamFull,001,2021_Mar_30_1355,AB_pic_singleT2,2020.2.10,60.2183275764758,
AB,lag1,1,3,4,0.06000000005000003,0.02,0.3,main,0,72,72,72,waterfountain02.jpg,dromedary.jpg,horse.jpg,mouse.jpg,tarantula.jpg,seal.jpg,bed.jpg,ant.jpg,triangle.jpg,tire.jpg,bluecheese.jpg,tree.jpg,flag.jpg,steeringwheel.jpg,tank.jpg,floorlamp.jpg,pooltable.jpg,0,0,6,.\resources\mouse.jpg,0,1,1230.9137294699672,None,None,1230.9137294699672,None,1225.6014651000733,1228.3640426000347,1228.0976209000219,None,0.03532603899878644,1228.5971916000126,None,1228.5971916000126,None,1228.9974890999729,None,1228.9974890999729,None,left,1.273319200030528,1228.9974890999729,None,1230.3995018000714,None,1230.3995018000714,None,right,0.4874961000168696,1230.3995018000714,None,-4.014956892063411,148.61005634707018,AdamFull,001,2021_Mar_30_1355,AB_pic_singleT2,2020.2.10,60.2183275764758,
AB,lag2,2,3,5,0.06000000005000003,0.02,0.3,main,0,73,73,73,raccoon.jpg,nose.jpg,pig.jpg,frisbee.jpg,kneepad01c.jpg,sausage.jpg,snowboard.jpg,panda.jpg,recyclingbin.jpg,accordion01.jpg,schoolbus.jpg,steeringwheel.jpg,whiteout.jpg,sandcastle.jpg,floorlamp.jpg,magneticcompass.jpg,jellybean.jpg,0,1,7,.\resources\kneepad01c.jpg,0,1,1235.5623056699756,None,None,1235.5623056699756,None,1230.9147821000079,1233.6786150999833,1233.412945499993,None,0.03634512620444065,1233.9131033000303,None,1233.9131033000303,None,1234.379564300063,None,1234.379564300063,None,left,0.857850500033237,1234.379564300063,None,1235.3180563000496,None,1235.3180563000496,None,left,0.2272817000048235,1235.3180563000496,None,-4.157478030020218,148.59963297523237,AdamFull,001,2021_Mar_30_1355,AB_pic_singleT2,2020.2.10,60.2183275764758,
AB,lag5,5,5,10,0.06000000005000003,0.02,0.3,main,0,74,74,74,totempole.jpg,curtain.jpg,car.jpg,parrot01.jpg,trumpet.jpg,bluecheese.jpg,greywolf.jpg,jeans01.jpg,chimney.jpg,spear02.jpg,bullet.jpg,eye.jpg,windshieldwiper02.jpg,banjo.jpg,harmonica.jpg,marble.jpg,drumset.jpg,0,1,12,.\resources\spear02.jpg,1,1,1240.477206869959,None,None,1240.477206869959,None,1235.5637773000635,1238.3276170999743,1238.0609562000027,None,0.03730677041486441,1238.5607274000067,None,1238.5607274000067,None,1239.3117682000156,None,1239.3117682000156,None,right,0.6245569000020623,1239.3117682000156,None,1240.0173283000477,None,1240.0173283000477,None,left,0.4387087000068277,1240.0173283000477,None,-4.142393084560821,148.59484079692803,AdamFull,001,2021_Mar_30_1355,AB_pic_singleT2,2020.2.10,60.2183275764758,
AB,lag6,6,4,10,0.06000000005000003,0.02,0.3,main,0,75,75,75,giraffe.jpg,porcupine.jpg,candycane01a.jpg,moose.jpg,ear.jpg,cross01.jpg,ceilingfan01.jpg,smokingpipe.jpg,punchingbag.jpg,spiderweb.jpg,football.jpg,cannon.jpg,windshieldwiper02.jpg,tie02.jpg,redfox.jpg,nosmokingsign.jpg,toyanimal05.jpg,0,1,12,.\resources\spiderweb.jpg,1,1,1246.4098796699896,None,None,1246.4098796699896,None,1240.4771101999795,1243.2259948999854,1242.9759628999745,None,0.0372064562674575,1243.476451799972,None,1243.476451799972,None,1244.226601600065,None,1244.226601600065,None,right,0.944110200041905,1244.226601600065,None,1245.251471900032,None,1245.251471900032,None,left,1.1401893000584096,1245.251471900032,None,-4.113953070362678,148.59121346548517,AdamFull,001,2021_Mar_30_1355,AB_pic_singleT2,2020.2.10,60.2183275764758,
AB,lag7,7,3,10,0.06000000005000003,0.02,0.3,main,0,76,76,76,smokingpipe.jpg,mattress.jpg,electrictoothbrush01c.jpg,lightswitch01.jpg,banjo.jpg,pirateflag.jpg,bacon.jpg,sheep.jpg,foot.jpg,musicsheet.jpg,tennisracket.jpg,coffeemaker.jpg,ear.jpg,curtain.jpg,masquerademask01.jpg,dandelion.jpg,wallclock.jpg,0,0,12,.\resources\musicsheet.jpg,1,1,1250.9914345700295,None,None,1250.9914345700295,None,1246.4087888000067,1249.1585373000707,1248.9078793000663,None,0.03701596684759673,1249.4077569000656,None,1249.4077569000656,None,1250.158261100063,None,1250.158261100063,None,right,0.6015322000021115,1250.158261100063,None,1250.851596500026,None,1250.851596500026,None,right,0.12314060004428029,1250.851596500026,None,-4.084973120663932,148.58833683193714,AdamFull,001,2021_Mar_30_1355,AB_pic_singleT2,2020.2.10,60.2183275764758,
AB,lag3,3,4,7,0.06000000005000003,0.02,0.3,main,0,77,77,77,waterfountain02.jpg,bowlingball.jpg,vulture.jpg,elbow.jpg,trumpet.jpg,microphone01.jpg,snowboard.jpg,rooster.jpg,locker.jpg,windshieldwiper02.jpg,pokerchips.jpg,dandelion.jpg,trampoline.jpg,popcorn.jpg,volleyball.jpg,kangaroo.jpg,parachute.jpg,1,0,9,.\resources\snowboard.jpg,1,1,1255.3563270700165,None,None,1255.3563270700165,None,1250.9909635999938,1253.739270900027,1253.4901266000234,None,0.036821648309935485,1253.9898065000307,None,1253.9898065000307,None,1254.573897800059,None,1254.573897800059,None,left,0.5787877000402659,1254.573897800059,None,1255.2327519999817,None,1255.2327519999817,None,right,0.09710640006233007,1255.2327519999817,None,-4.0565237247166674,148.58616417872477,AdamFull,001,2021_Mar_30_1355,AB_pic_singleT2,2020.2.10,60.2183275764758,
AB,lag4,4,4,8,0.06000000005000003,0.02,0.3,main,0,78,78,78,nunchuk.jpg,alligator.jpg,noparkingsign.jpg,butterfly.jpg,dreamcatcher.jpg,porcupine.jpg,bridge.jpg,corn02.jpg,toyanimal05.jpg,spear02.jpg,whiteout.jpg,kneepad01c.jpg,seal.jpg,coffeemaker.jpg,firehydrant.jpg,crown.jpg,badmintonracket.jpg,0,0,10,.\resources\corn02.jpg,1,1,1260.188214970031,None,None,1260.188214970031,None,1255.355815100018,1258.1051916000433,1257.8554337000242,None,0.03663071939383092,1258.355340900016,None,1258.355340900016,None,1258.9893449000083,None,1258.9893449000083,None,right,0.9305041999323294,1258.9893449000083,None,1259.9972867000615,None,1259.9972867000615,None,right,0.15983610006514937,1259.9972867000615,None,-4.028676843951877,148.58468059504656,AdamFull,001,2021_Mar_30_1355,AB_pic_singleT2,2020.2.10,60.2183275764758,
AB,lag5,5,3,8,0.06000000005000003,0.02,0.3,main,0,79,79,79,daddylonglegs.jpg,englishcucumber.jpg,bull.jpg,snowman.jpg,nose.jpg,fridge.jpg,chimney.jpg,swing.jpg,lily.jpg,seagull.jpg,spear02.jpg,windshieldwiper02.jpg,nunchuk.jpg,shovel01.jpg,golfball.jpg,jellyfish.jpg,lightswitch01.jpg,0,0,10,.\resources\swing.jpg,1,1,1264.5205934700557,None,None,1264.5205934700557,None,1260.1880573000526,1262.9369668000145,1262.6872007000493,None,0.03644367093152596,1263.1873106000712,None,1263.1873106000712,None,1263.8213491999777,None,1263.8213491999777,None,right,0.425296499975957,1263.8213491999777,None,1264.331478600041,None,1264.331478600041,None,right,0.15967149997595698,1264.331478600041,None,-4.00142187759248,148.58387444744324,AdamFull,001,2021_Mar_30_1355,AB_pic_singleT2,2020.2.10,60.2183275764758,
AB,lag6,6,3,9,0.06000000005000003,0.02,0.3,main,0,80,80,80,vulture.jpg,paperairplane.jpg,treadmill.jpg,stubbywrench01a.jpg,ducttape.jpg,exitsign.jpg,sheep.jpg,cigar.jpg,tiger02.jpg,trampoline.jpg,bowlingball.jpg,witchhat.jpg,cannon.jpg,punchingbag.jpg,totempole.jpg,discoball.jpg,jackrabbit.jpg,0,0,11,.\resources\tiger02.jpg,1,1,1268.8530820699875,None,None,1268.8530820699875,None,1264.524293399998,1267.2858431000495,1267.0191291000228,None,0.036260437135243115,1267.5191291000228,None,1267.5191291000228,None,1268.2033254000125,None,1268.2033254000125,None,right,0.42169909994117916,1268.2033254000125,None,1268.7149101999821,None,1268.7149101999821,None,right,0.1190568000311032,1268.7149101999821,None,-3.9747422930617007,148.58373494890333,AdamFull,001,2021_Mar_30_1355,AB_pic_singleT2,2020.2.10,60.2183275764758,
AB,lag3,3,5,8,0.06000000005000003,0.02,0.3,main,0,81,81,81,noparkingsign.jpg,arrow02.jpg,lawnmower.jpg,turnstile.jpg,boat.jpg,dormer.jpg,windmill.jpg,fingerprint.jpg,hand01b.jpg,lion.jpg,firehydrant.jpg,sledgehammer.jpg,pumpkin.jpg,armadillo.jpg,knee.jpg,stubbywrench01a.jpg,witchhat.jpg,0,0,10,.\resources\fingerprint.jpg,1,1,1273.5341639700114,None,None,1273.5341639700114,None,1268.853399500018,1271.6181492999895,1271.3515363000333,None,0.03608091192501794,1271.8511105000507,None,1271.8511105000507,None,1272.4847127000103,None,1272.4847127000103,None,right,0.8063402000116184,1272.4847127000103,None,1273.3785860000644,None,1273.3785860000644,None,right,0.1312409999081865,1273.3785860000644,None,-3.9486218641810864,148.5842519073582,AdamFull,001,2021_Mar_30_1355,AB_pic_singleT2,2020.2.10,60.2183275764758,
AB,lag7,7,5,12,0.06000000005000003,0.02,0.3,main,0,82,82,82,toad.jpg,jackrabbit.jpg,lollipop04.jpg,ducttape.jpg,wheelchair.jpg,makiroll.jpg,smokingpipe.jpg,cow.jpg,bullet.jpg,cloud.jpg,birdfeeder.jpg,snowshoe.jpg,cashregister01.jpg,jellyfish.jpg,crown.jpg,toilet.jpg,noparkingsign.jpg,0,1,14,.\resources\snowshoe.jpg,1,1,1278.283336769999,None,None,1278.283336769999,None,1273.5344721999718,1276.2998093999922,1276.0336014999775,None,0.03590499098536552,1276.5338692000369,None,1276.5338692000369,None,1277.3836327000754,None,1277.3836327000754,None,right,0.6095480000367388,1277.3836327000754,None,1278.0759968999773,None,1278.0759968999773,None,left,0.18528370000422,1278.0759968999773,None,-3.923045100420565,148.58541565762283,AdamFull,001,2021_Mar_30_1355,AB_pic_singleT2,2020.2.10,60.2183275764758,
AB,lag1,1,3,4,0.06000000005000003,0.02,0.3,main,0,83,83,83,golfball.jpg,skateboard.jpg,crown.jpg,cashregister01.jpg,surfboard.jpg,ipad02.jpg,elbow.jpg,leafrake.jpg,tie02.jpg,holdfast.jpg,moon.jpg,fireplace.jpg,trampoline.jpg,wheelchair.jpg,flamingo.jpg,boxingglove01.jpg,lip.jpg,1,0,6,.\resources\cashregister01.jpg,1,1,1282.665058769961,None,None,1282.665058769961,None,1278.284353199997,1281.0487292000325,1280.7826829999685,None,0.03573257468131646,1281.2825533000287,None,1281.2825533000287,None,1281.682273500017,None,1281.682273500017,None,left,0.7844996999483556,1281.682273500017,None,1282.5624179000733,None,1282.5624179000733,None,right,0.07826780003961176,1282.5624179000733,None,-3.8979972127328875,148.5872170123317,AdamFull,001,2021_Mar_30_1355,AB_pic_singleT2,2020.2.10,60.2183275764758,
AB,lag2,2,3,5,0.06000000005000003,0.02,0.3,main,0,84,84,84,helicopter.jpg,jellybean.jpg,pingpongtable.jpg,tortoise01.jpg,lion.jpg,witchhat.jpg,banjo.jpg,toucan.jpg,giraffe.jpg,polarbear.jpg,punchingbag.jpg,lip.jpg,tulip02.jpg,hulahoop.jpg,bacon.jpg,firehydrant.jpg,fortunecookie.jpg,0,0,7,.\resources\lion.jpg,1,1,1286.764300669986,None,None,1286.764300669986,None,1282.6649789999938,1285.4138561000582,1285.1638717000606,None,0.035563567849946465,1285.6638016999932,None,1285.6638016999932,None,1286.114417099976,None,1286.114417099976,None,right,0.4149589999578893,1286.114417099976,None,1286.6052375000436,None,1286.6052375000436,None,right,0.1400970999384299,1286.6052375000436,None,-3.8734640510265783,148.58964721821366,AdamFull,001,2021_Mar_30_1355,AB_pic_singleT2,2020.2.10,60.2183275764758,
AB,lag1,1,4,5,0.06000000005000003,0.02,0.3,main,0,85,85,85,skunk.jpg,fingerprint.jpg,hockeystick.jpg,treadmill.jpg,englishcucumber.jpg,seagull.jpg,eyepatch.jpg,whiteout.jpg,jeep.jpg,rose.jpg,rooster.jpg,triangle.jpg,horse.jpg,well.jpg,tank.jpg,cobra.jpg,windmill.jpg,1,0,7,.\resources\englishcucumber.jpg,1,1,1291.0626547700726,None,None,1291.0626547700726,None,1286.7650993000716,1289.5296799000353,1289.2628718999913,None,0.03539787939883973,1289.7644618999911,None,1289.7644618999911,None,1290.2131955999648,None,1290.2131955999648,None,left,0.5954547000583261,1290.2131955999648,None,1290.8883719000733,None,1290.8883719000733,None,right,0.14835630008019507,1290.8883719000733,None,-3.849432047106621,148.59269791630544,AdamFull,001,2021_Mar_30_1355,AB_pic_singleT2,2020.2.10,60.2183275764758,
AB,lag5,5,4,9,0.06000000005000003,0.02,0.3,main,0,86,86,86,trumpet.jpg,dormer.jpg,sheep.jpg,wallclock.jpg,cupcake.jpg,badmintonracket.jpg,platypus.jpg,schoolbus.jpg,crosscountryski.jpg,cat.jpg,popcorn.jpg,rollerblade.jpg,treadmill.jpg,volleyball.jpg,electrictoothbrush01c.jpg,mrpotatohead.jpg,bowlingball.jpg,0,0,11,.\resources\crosscountryski.jpg,1,0,1296.0780052699615,None,None,1296.0780052699615,None,1291.0707777000498,1293.8281051999656,1293.561546400073,None,0.035235421939613244,1294.061387200025,None,1294.061387200025,None,1294.728460000013,None,1294.728460000013,None,right,0.7618915000930429,1294.728460000013,None,1295.5764661000576,None,1295.5764661000576,None,left,0.47351630008779466,1295.5764661000576,None,-3.8258881647326684,148.59636110572208,AdamFull,001,2021_Mar_30_1355,AB_pic_singleT2,2020.2.10,60.2183275764758,
AB,lag7,7,4,11,0.06000000005000003,0.02,0.3,main,0,87,87,87,dromedary.jpg,pingpongtable.jpg,marble.jpg,football.jpg,bed.jpg,brownsugar.jpg,sword01.jpg,mouse.jpg,cactus.jpg,punchingbag.jpg,spicerack.jpg,dreamcatcher.jpg,penguin.jpg,vulture.jpg,birthdaycandle.jpg,baseballbat.jpg,horse.jpg,1,0,13,.\resources\spicerack.jpg,1,1,1302.4594002699946,None,None,1302.4594002699946,None,1296.08408890001,1298.8429714000085,1298.5765660000034,None,0.03507611146779186,1299.076804600074,None,1299.076804600074,None,1299.865033500013,None,1299.865033500013,None,left,2.3171377999242395,1299.865033500013,None,1302.2694363000337,None,1302.2694363000337,None,right,0.1613202999578789,1302.2694363000337,None,-3.8028198560274578,148.60062911069275,AdamFull,001,2021_Mar_30_1355,AB_pic_singleT2,2020.2.10,60.2183275764758,
AB,lag4,4,3,7,0.06000000005000003,0.02,0.3,main,0,88,88,88,pigeon.jpg,beerbottle.jpg,airhockeytable.jpg,bowtie.jpg,waterfountain02.jpg,musicsheet.jpg,smokingpipe.jpg,shower.jpg,eiffeltower.jpg,greathornowl.jpg,golfball.jpg,stubbywrench01a.jpg,ladybug03.jpg,sandcastle.jpg,hockeystick.jpg,locker.jpg,soccerball.jpg,1,0,9,.\resources\smokingpipe.jpg,1,1,1306.8914740700043,None,None,1306.8914740700043,None,1302.4645879999734,1305.2247203000588,1304.9586689000716,None,0.03491986708402137,1305.4584857000737,None,1305.4584857000737,None,1306.0252589000156,None,1306.0252589000156,None,left,0.691556700039655,1306.0252589000156,None,1306.8074133000337,None,1306.8074133000337,None,right,0.06717460008803755,1306.8074133000337,None,-3.7802150233997636,148.60549455059288,AdamFull,001,2021_Mar_30_1355,AB_pic_singleT2,2020.2.10,60.2183275764758,
AB,lag6,6,4,10,0.06000000005000003,0.02,0.3,main,0,89,89,89,tent.jpg,armadillo.jpg,hockeystick.jpg,dalmatian.jpg,turnstile.jpg,ladybug03.jpg,foosballtable.jpg,badmintonracket.jpg,tank.jpg,drumset.jpg,curtain.jpg,kite.jpg,microwave.jpg,baseballbat.jpg,windmill.jpg,kiwi03.jpg,football.jpg,0,0,12,.\resources\drumset.jpg,1,1,1311.2408426700626,None,None,1311.2408426700626,None,1306.8953353000106,1309.6567834999878,1309.3902180000441,None,0.03476661075113014,1309.8904657000676,None,1309.8904657000676,None,1310.6076988000423,None,1310.6076988000423,None,right,0.38757979997899383,1310.6076988000423,None,1311.0916140000336,None,1311.0916140000336,None,right,0.1302737999940291,1311.0916140000336,None,-3.758061986244996,148.61095031274337,AdamFull,001,2021_Mar_30_1355,AB_pic_singleT2,2020.2.10,60.2183275764758,
AB,lag3,3,3,6,0.06000000005000003,0.02,0.3,main,0,90,90,90,pig.jpg,badmintonracket.jpg,sword01.jpg,acousticguitar02.jpg,kangaroo.jpg,kiwi03.jpg,cigar.jpg,sink.jpg,moon.jpg,hockeystick.jpg,africanelephant.jpg,eyepatch.jpg,kite.jpg,scorpion.jpg,bullet.jpg,snowboard.jpg,hand01b.jpg,0,1,8,.\resources\kiwi03.jpg,1,1,1315.93899587004,None,None,1315.93899587004,None,1311.240635800059,1314.0056319000432,1313.739323200076,None,0.03461626708219602,1314.2389382000547,None,1314.2389382000547,None,1314.739411400049,None,1314.739411400049,None,right,0.9227251999545842,1314.739411400049,None,1315.7573913000524,None,1315.7573913000524,None,left,0.1657025000313297,1315.7573913000524,None,-3.7363494517827136,148.61698952773193,AdamFull,001,2021_Mar_30_1355,AB_pic_singleT2,2020.2.10,60.2183275764758,
AB,lag2,2,3,5,0.06000000005000003,0.02,0.3,main,0,91,91,91,fireplace.jpg,peacock.jpg,lawnmower.jpg,escalator.jpg,spicerack.jpg,electricguitar01.jpg,polarbear.jpg,totempole.jpg,corn02.jpg,makiroll.jpg,lollipop04.jpg,toolbox02.jpg,jackrabbit.jpg,jellyfish.jpg,daddylonglegs.jpg,chainsaw.jpg,ant.jpg,0,1,7,.\resources\spicerack.jpg,1,1,1320.3538817700232,None,None,1320.3538817700232,None,1315.939192699967,1318.703980899998,1318.4378726000432,None,0.03446876315541783,1318.9376929000719,None,1318.9376929000719,None,1319.3881887000753,None,1319.3881887000753,None,right,0.6699390999274328,1319.3881887000753,None,1320.1596821000567,None,1320.1596821000567,None,left,0.17021739995107055,1320.1596821000567,None,-3.7150664894752756,148.62360554707496,AdamFull,001,2021_Mar_30_1355,AB_pic_singleT2,2020.2.10,60.2183275764758,
AB,lag4,4,4,8,0.06000000005000003,0.02,0.3,main,0,92,92,92,spiderweb.jpg,skateboard.jpg,barrel01.jpg,porcupine.jpg,bull.jpg,cupcake.jpg,triangle.jpg,callbell.jpg,banjo.jpg,alligator.jpg,leafrake.jpg,swing.jpg,lip.jpg,surfboard.jpg,windshieldwiper02.jpg,pokerchips.jpg,birdfeeder.jpg,1,1,10,.\resources\callbell.jpg,1,1,1325.0530842699577,None,None,1325.0530842699577,None,1320.3553815999767,1323.1192640999798,1322.8532228000695,None,0.03432402835214063,1323.3528072000481,None,1323.3528072000481,None,1323.9536404999672,None,1323.9536404999672,None,left,0.7651247000321746,1323.9536404999672,None,1324.8007646000478,None,1324.8007646000478,None,left,0.22824920003768057,1324.8007646000478,None,-3.694202508543944,148.63079192299273,AdamFull,001,2021_Mar_30_1355,AB_pic_singleT2,2020.2.10,60.2183275764758,
AB,lag7,7,4,11,0.06000000005000003,0.02,0.3,main,0,93,93,93,sheep.jpg,cashregister01.jpg,noparkingsign.jpg,worldmap.jpg,callbell.jpg,parkingmeter.jpg,discoball.jpg,tent.jpg,pumpkin.jpg,safe.jpg,microwave.jpg,candycane01a.jpg,whiteout.jpg,spicerack.jpg,lion.jpg,greatwhiteshark.jpg,urinal.jpg,0,0,13,.\resources\microwave.jpg,1,1,1329.5683178700042,None,None,1329.5683178700042,None,1325.058000399964,1327.8180363000138,1327.552251700079,None,0.0341819942148737,1328.052389599965,None,1328.052389599965,None,1328.819263900048,None,1328.819263900048,None,right,0.5066534000216052,1328.819263900048,None,1329.4168228000635,None,1329.4168228000635,None,right,0.12610320001840591,1329.4168228000635,None,-3.673747238162625,148.6385423901438,AdamFull,001,2021_Mar_30_1355,AB_pic_singleT2,2020.2.10,60.2183275764758,
AB,lag1,1,5,6,0.06000000005000003,0.02,0.3,main,0,94,94,94,honeybee.jpg,porcupine.jpg,knee.jpg,lizard.jpg,discoball.jpg,cannon.jpg,cruiseship.jpg,bridge.jpg,xylophone.jpg,fingerprint.jpg,jellybean.jpg,harmonica.jpg,pig.jpg,snowshoe.jpg,swing.jpg,zipper.jpg,fridge.jpg,1,1,8,.\resources\cannon.jpg,1,1,1334.033677570033,None,None,1334.033677570033,None,1329.5676083000144,1332.3169887000695,1332.067187000066,None,0.03404259432254797,1332.567106600036,None,1332.567106600036,None,1333.0675076000625,None,1333.0675076000625,None,left,0.7197746000019833,1333.0675076000625,None,1333.878805699991,None,1333.878805699991,None,left,0.13268510007765144,1333.878805699991,None,-3.653690709964289,148.6468508491486,AdamFull,001,2021_Mar_30_1355,AB_pic_singleT2,2020.2.10,60.2183275764758,
AB,lag5,5,4,9,0.06000000005000003,0.02,0.3,main,0,95,95,95,jeans01.jpg,raccoon.jpg,sledgehammer.jpg,panda.jpg,cigar.jpg,acorn.jpg,key07.jpg,saxophone.jpg,chainsaw.jpg,fireplace.jpg,polarbear.jpg,brownsugar.jpg,rooster.jpg,vacuumcleaner01.jpg,rubikcube.jpg,hockeypuck.jpg,bowlingpin.jpg,1,0,11,.\resources\chainsaw.jpg,0,1,1341.7813545700396,None,None,1341.7813545700396,None,1334.0366090000607,1336.7989900000393,1336.5325574000599,None,0.03390576418062776,1337.0325249000452,None,1337.0325249000452,None,1337.6826908000512,None,1337.6826908000512,None,right,2.89981530001387,1337.6826908000512,None,1340.6623241000343,None,1340.6623241000343,None,right,1.097343200002797,1340.6623241000343,None,-3.739455914560324,148.65076813404775,AdamFull,001,2021_Mar_30_1355,AB_pic_singleT2,2020.2.10,60.2183275764758,
AB,lag2,2,5,7,0.06000000005000003,0.02,0.3,main,0,96,96,96,toad.jpg,chimney.jpg,ostrich.jpg,dragonfly01.jpg,hammerheadshark.jpg,ear.jpg,tiger02.jpg,volleyball.jpg,punchingbag.jpg,waterfall.jpg,worldmap.jpg,lawnmower.jpg,nosmokingsign.jpg,moon.jpg,hulahoop.jpg,bathtub.jpg,snowshoe.jpg,1,1,9,.\resources\tiger02.jpg,1,1,1346.0634843699868,None,None,1346.0634843699868,None,1341.791230199975,1344.5464618999977,1344.2802509000758,None,0.03448182838219849,1344.780324100051,None,1344.780324100051,None,1345.3305419000098,None,1345.3305419000098,None,left,0.4893303000135347,1345.3305419000098,None,1345.9094148000004,None,1345.9094148000004,None,left,0.12425220001023263,1345.9094148000004,None,-3.7265804068653834,148.65796015288794,AdamFull,001,2021_Mar_30_1355,AB_pic_singleT2,2020.2.10,60.2183275764758,
AB,lag6,6,3,9,0.06000000005000003,0.02,0.3,main,0,97,97,97,hand01b.jpg,sausage.jpg,bed.jpg,curtain.jpg,foot.jpg,tennisracket.jpg,skunk.jpg,cymbal.jpg,ladder.jpg,worldmap.jpg,mailbox02.jpg,bull.jpg,swing.jpg,cigar.jpg,statue.jpg,bow.jpg,apron.jpg,0,1,11,.\resources\ladder.jpg,0,0,1350.9120192699834,None,None,1350.9120192699834,None,1346.0658757999772,1348.8292873000028,1348.5624277000315,None,0.03439354853737341,1349.062327099964,None,1349.062327099964,None,1349.7291809000308,None,1349.7291809000308,None,left,0.7033791000721976,1349.7291809000308,None,1350.5242731000762,None,1350.5242731000762,None,right,0.35780460003297776,1350.5242731000762,None,-3.808219351983247,148.6611160718747,AdamFull,001,2021_Mar_30_1355,AB_pic_singleT2,2020.2.10,60.2183275764758,
AB,lag3,3,3,6,0.06000000005000003,0.02,0.3,main,0,98,98,98,lightswitch01.jpg,badmintonracket.jpg,birdhouse.jpg,chefshat.jpg,curtain.jpg,penguin.jpg,lily.jpg,toad.jpg,mattress.jpg,cactus.jpg,crab01.jpg,foosballtable.jpg,granolabar01.jpg,ear.jpg,smokingpipe.jpg,donut.jpg,hulahoop.jpg,0,1,8,.\resources\penguin.jpg,0,1,1356.3605264699786,None,None,1356.3605264699786,None,1350.9182917000726,1353.677304700017,1353.4114645000082,None,0.034941979788391295,1353.910828800057,None,1353.910828800057,None,1354.4116800000193,None,1354.4116800000193,None,left,1.6741673999931663,1354.4116800000193,None,1356.1739837999921,None,1356.1739837999921,None,left,0.15830290003214031,1356.1739837999921,None,-3.8915287293896013,148.66291741790252,AdamFull,001,2021_Mar_30_1355,AB_pic_singleT2,2020.2.10,60.2183275764758,
AB,lag1,1,3,4,0.06000000005000003,0.02,0.3,main,0,99,99,99,paperairplane.jpg,smokingpipe.jpg,snowman.jpg,tree.jpg,cymbal.jpg,christmastree.jpg,daddylonglegs.jpg,lawnmower.jpg,leafblower01.jpg,crosscountryski.jpg,magneticcompass.jpg,penguin.jpg,church.jpg,panda.jpg,africanelephant.jpg,mouse.jpg,bull.jpg,0,1,6,.\resources\tree.jpg,1,1,1361.0590152700665,None,None,1361.0590152700665,None,1356.3622620999813,1359.1258067999734,1358.8594780999701,None,0.0355019475076837,1359.3593867999734,None,1359.3593867999734,None,1359.7598396000685,None,1359.7598396000685,None,right,0.7517790000420064,1359.7598396000685,None,1360.607878800016,None,1360.607878800016,None,left,0.4230328999692574,1360.607878800016,None,-3.878787920323143,148.66803555233653,AdamFull,001,2021_Mar_30_1355,AB_pic_singleT2,2020.2.10,60.2183275764758,
AB,lag2,2,4,6,0.06000000005000003,0.02,0.3,main,0,100,100,100,sword01.jpg,floorlamp.jpg,kneepad01c.jpg,cactus.jpg,cigar.jpg,tennisracket.jpg,hockeypuck.jpg,swing.jpg,knee.jpg,acousticguitar02.jpg,ironingboard01.jpg,handcuffs.jpg,skunk.jpg,accordion01.jpg,trampoline.jpg,footballhelmet.jpg,mattress.jpg,0,0,8,.\resources\tennisracket.jpg,1,1,1366.108180870046,None,None,1366.108180870046,None,1361.0619555000449,1363.8244638000615,1363.5582157999743,None,0.03541502557615712,1364.0579702999676,None,1364.0579702999676,None,1364.5749267999781,None,1364.5749267999781,None,right,1.2823805999942124,1364.5749267999781,None,1365.9365404000273,None,1365.9365404000273,None,right,0.15314750000834465,1365.9365404000273,None,-3.8617375552194475,148.6737568707094,AdamFull,001,2021_Mar_30_1355,AB_pic_singleT2,2020.2.10,60.2183275764758,
AB,lag3,3,5,8,0.06000000005000003,0.02,0.3,main,0,101,101,101,wheelbarrow01.jpg,daddylonglegs.jpg,jeep.jpg,tent.jpg,cigar.jpg,triangle.jpg,armadillo.jpg,anchor.jpg,lion.jpg,hockeystick.jpg,xylophone.jpg,table01.jpg,platypus.jpg,mattress.jpg,birdnest.jpg,wheelchair.jpg,badmintonracket.jpg,0,0,10,.\resources\anchor.jpg,1,1,1370.5564174699598,None,None,1370.5564174699598,None,1366.112474399968,1368.8733296999708,1368.6063780999975,None,0.03529897963702608,1369.1086161000421,None,1369.1086161000421,None,1369.7240346000763,None,1369.7240346000763,None,right,0.620441299979575,1369.7240346000763,None,1370.4392640000442,None,1370.4392640000442,None,right,0.09353869990445673,1370.4392640000442,None,-3.8447245983311946,148.67994584996399,AdamFull,001,2021_Mar_30_1355,AB_pic_singleT2,2020.2.10,60.2183275764758,
AB,lag5,5,3,8,0.06000000005000003,0.02,0.3,main,0,102,102,102,africanelephant.jpg,ironingboard01.jpg,masquerademask01.jpg,dalmatian.jpg,rubikcube.jpg,steeringwheel.jpg,greathornowl.jpg,cobra.jpg,shovel01.jpg,christmaslights.jpg,volleyball.jpg,pigeon.jpg,bat.jpg,jellyfish.jpg,rose.jpg,corn02.jpg,candycane01a.jpg,0,0,10,.\resources\cobra.jpg,1,1,1375.0216838699766,None,None,1375.0216838699766,None,1370.5605747000081,1373.3217945999932,1373.0551924000029,None,0.03518308356615771,1373.5554320999654,None,1373.5554320999654,None,1374.1723264000611,None,1374.1723264000611,None,right,0.6431582999648526,1374.1723264000611,None,1374.9043179000728,None,1374.9043179000728,None,right,0.09496609994675964,1374.9043179000728,None,-3.8279459855156777,148.6865903007538,AdamFull,001,2021_Mar_30_1355,AB_pic_singleT2,2020.2.10,60.2183275764758,
AB,lag6,6,5,11,0.06000000005000003,0.02,0.3,main,0,103,103,103,cow.jpg,xylophone.jpg,rollerblade.jpg,arrow02.jpg,wheelbarrow01.jpg,spicerack.jpg,redfox.jpg,corn02.jpg,lollipop04.jpg,bat.jpg,bowtie.jpg,escalator.jpg,butterfly.jpg,icecube02.jpg,bumpercar.jpg,panda.jpg,golfball.jpg,0,0,13,.\resources\bowtie.jpg,0,1,1379.5704227699666,None,None,1379.5704227699666,None,1375.0247681000037,1377.7872320000315,1377.5204380999785,None,0.03506866581638959,1378.0202972000698,None,1378.0202972000698,None,1378.8042392999632,None,1378.8042392999632,None,left,0.6022275000577793,1378.8042392999632,None,1379.5024748999858,None,1379.5024748999858,None,right,0.050665799994021654,1379.5024748999858,None,-3.8998186685665095,148.68945523223348,AdamFull,001,2021_Mar_30_1355,AB_pic_singleT2,2020.2.10,60.2183275764758,
AB,lag7,7,3,10,0.06000000005000003,0.02,0.3,main,0,104,104,104,lip.jpg,toilet.jpg,grizzly.jpg,armadillo.jpg,arrow02.jpg,paperairplane.jpg,musicsheet.jpg,donut.jpg,tennisracket.jpg,pokerchips.jpg,eye.jpg,bluecheese.jpg,anchor.jpg,jackrabbit.jpg,scooter.jpg,hockeystick.jpg,wallclock.jpg,0,1,12,.\resources\pokerchips.jpg,0,1,1386.5519383699634,None,None,1386.5519383699634,None,1379.57176229998,1382.3357043999713,1382.06934669998,None,0.035551364563345685,1382.5693881000625,None,1382.5693881000625,None,1383.3028745000483,None,1383.3028745000483,None,left,2.9962036999640986,1383.3028745000483,None,1386.3832786000567,None,1386.3832786000567,None,left,0.13907819997984916,1386.3832786000567,None,-3.97270390238532,148.6911524362403,AdamFull,001,2021_Mar_30_1355,AB_pic_singleT2,2020.2.10,60.2183275764758,
AB,lag4,4,4,8,0.06000000005000003,0.02,0.3,main,0,105,105,105,curtain.jpg,flamingo.jpg,squirrel.jpg,parrot01.jpg,sausage.jpg,spiderweb.jpg,waterfountain02.jpg,honeybee.jpg,table01.jpg,cigar.jpg,elbow.jpg,punchingbag.jpg,dandelion.jpg,sledgehammer.jpg,rooster.jpg,paperairplane.jpg,firehydrant.jpg,0,1,10,.\resources\honeybee.jpg,1,1,1391.7502801699798,None,None,1391.7502801699798,None,1386.5525282999733,1389.3169086000416,1389.0503384000622,None,0.036041137456400994,1389.5505781000247,None,1389.5505781000247,None,1390.1841248000273,None,1390.1841248000273,None,right,1.3285475999582559,1390.1841248000273,None,1391.6083123000572,None,1391.6083123000572,None,left,0.11326610005926341,1391.6083123000572,None,-3.960517877044029,148.69586918988918,AdamFull,001,2021_Mar_30_1355,AB_pic_singleT2,2020.2.10,60.2183275764758,
AB,lag2,2,5,7,0.06000000005000003,0.02,0.3,main,0,106,106,106,showerhead01.jpg,boxingglove01.jpg,holdfast.jpg,pingpongtable.jpg,bench01.jpg,tennisracket.jpg,parrot01.jpg,tulip02.jpg,athleticsock.jpg,tortoise01.jpg,ceilingfan01.jpg,eye.jpg,well.jpg,toad.jpg,peacock.jpg,horse.jpg,dalmatian.jpg,0,1,9,.\resources\parrot01.jpg,1,1,1396.9984506700189,None,None,1396.9984506700189,None,1391.7504521000665,1394.5153657000046,1394.249066599994,None,0.03595804151987488,1394.7488327000756,None,1394.7488327000756,None,1395.3157221999718,None,1395.3157221999718,None,right,1.4592505000764504,1395.3157221999718,None,1396.8695297000231,None,1396.8695297000231,None,left,0.10069579991977662,1396.8695297000231,None,-3.9452958532450633,148.70110323509093,AdamFull,001,2021_Mar_30_1355,AB_pic_singleT2,2020.2.10,60.2183275764758,
AB,lag1,1,3,4,0.06000000005000003,0.02,0.3,main,0,107,107,107,swing.jpg,bow.jpg,honeybee.jpg,frenchfries.jpg,bullet.jpg,noparkingsign.jpg,dalmatian.jpg,eyepatch.jpg,volleyball.jpg,ostrich.jpg,hockeypuck.jpg,turnstile.jpg,makiroll.jpg,airhockeytable.jpg,trumpet.jpg,toyanimal05.jpg,footballhelmet.jpg,1,0,6,.\resources\frenchfries.jpg,1,1,1401.5806723700139,None,None,1401.5806723700139,None,1396.997997700004,1399.7471482000547,1399.4978076000698,None,0.035854409270494166,1399.9970751999645,None,1399.9970751999645,None,1400.3978936000494,None,1400.3978936000494,None,left,1.010168100008741,1400.3978936000494,None,1401.5097923000576,None,1401.5097923000576,None,right,0.054836299968883395,1401.5097923000576,None,-3.9301415479432382,148.70675338901415,AdamFull,001,2021_Mar_30_1355,AB_pic_singleT2,2020.2.10,60.2183275764758,
AB,lag3,3,4,7,0.06000000005000003,0.02,0.3,main,0,108,108,108,turnstile.jpg,eye.jpg,ipad02.jpg,donut.jpg,duck01.jpg,boat.jpg,wheelbarrow01.jpg,snowshoe.jpg,noparkingsign.jpg,jellyfish.jpg,cocktailshrimp02.jpg,steeringwheel.jpg,hammerheadshark.jpg,nosmokingsign.jpg,makiroll.jpg,table01.jpg,snowman.jpg,0,1,9,.\resources\wheelbarrow01.jpg,0,1,1406.629141870048,None,None,1406.629141870048,None,1401.5816461000359,1404.3458935000235,1404.07947170001,None,0.035751139661797535,1404.5793431000784,None,1404.5793431000784,None,1405.1465518000768,None,1405.1465518000768,None,left,1.2595999999903142,1405.1465518000768,None,1406.5011751999846,None,1406.5011751999846,None,left,0.09759889997076243,1406.5011751999846,None,-3.9950121536010337,148.70892239323658,AdamFull,001,2021_Mar_30_1355,AB_pic_singleT2,2020.2.10,60.2183275764758,
