trialTypeautocndTypautolagautoT1_locautoT2_locautostimLenautoisiautoskipProbautophaseautotrials.thisRepNautotrials.thisTrialNautotrials.thisNautotrials.thisIndexautotrials2.thisRepNautotrials2.thisTrialNautotrials2.thisNautotrials2.thisIndexautotext_3.startedautotext_3.stoppedautokey_resp_4.keysautokey_resp_4.rtautokey_resp_4.startedautokey_resp_4.stoppedautoimg0autoimg1autoimg2autoimg3autoimg4autoimg5autoimg6autoimg7autoimg8autoimg9autoimg10autoimg11autoimg12autoimg13autoimg14autoimg15autoimg16autooption1.startedautooption1.stoppedautotext_2.startedautotext_2.stoppedautoskip1autoskip2autolastPresentautodisplayPicture.startedautodisplayPicture.stoppedautopolygon_2.startedautopolygon_2.stoppedautoopt1_t1autopolygon_4.startedautopolygon_4.stoppedautocor1autooption1_t1.startedautooption1_t1.stoppedautokey_resp.keysautokey_resp.rtautokey_resp.startedautokey_resp.stoppedautopolygon_5.startedautopolygon_5.stoppedautotext_6.startedautotext_6.stoppedautocor2autokey_resp_2.keysautokey_resp_2.rtautokey_resp_2.startedautokey_resp_2.stoppedautofeedbackText.startedautofeedbackText.stoppedautotext.startedautotext.stoppedautokey_resp_3.keysautokey_resp_3.startedautokey_resp_3.stoppedautotext_4.startedautotext_4.stoppedautokey_resp_7.keysautokey_resp_7.rtautokey_resp_7.startedautokey_resp_7.stoppedautooption1_3.startedautooption1_3.stoppedautotext_7.startedautotext_7.stoppedautocurStimTimautodisplayPicture_4.startedautodisplayPicture_4.stoppedautopolygon_16.startedautopolygon_16.stoppedautopolygon_7.startedautopolygon_7.stoppedautooption1_t1_2.startedautooption1_t1_2.stoppedautokey_resp_6.keysautokey_resp_6.rtautokey_resp_6.startedautokey_resp_6.stoppedautopolygon_17.startedautopolygon_17.stoppedautotext_8.startedautotext_8.stoppedautokey_resp_8.keysautokey_resp_8.rtautokey_resp_8.startedautokey_resp_8.stoppedautoB0autoB1autokey_resp_3.rtautoparticipantautosessionautodateautoexpNameautopsychopyVersionautoframeRateauto
autoautoautoautoautoautoautoautoautoautoautoautoautoautoautoautoauto460.53518750006333autoNoneautospaceauto1.085480900015682auto460.53518750006333autoNoneautoautoautoautoautoautoautoautoautoautoautoautoautoautoautoautoautoautoautoautoautoautoautoautoautoautoautoautoautoautoautoautoautoautoautoautoautoautoautoautoautoautoautoautoautoautoautoautoautoautoautoautoautoautoautoautoautoautoautoautoautoautoautoautoautoautoautoautoautoautoautoautoautoautoautoautoautoautoautoautoautoautoautoautoautoautoautoautoautoAdamFullauto001auto2021_Mar_30_1355autoAB_pic_singleT2auto2020.2.10auto60.2183275764758auto
ABautolag3auto3auto3auto6auto0.2auto0.05auto0.5autoauto0auto0auto0auto5autoautoautoautoautoautoautoautoautoautoautosmokingpipe.jpgautotoolbox02.jpgautoturnstile.jpgautocruiseship.jpgautocrown.jpgautowhiteout.jpgautohorseshoe.jpgautoswordfish.jpgautotriangle.jpgautodolphin01.jpgautoarmadillo.jpgautoarrow02.jpgautonunchuk.jpgautotoucan.jpgautofrisbee.jpgautosink.jpgautobirthdaycandle.jpgauto461.74829200003296auto464.5027894000523auto464.2028758999659autoNoneauto0auto1auto8auto464.6650891000172autoNoneauto464.6650891000172autoNoneauto.\resources\whiteout.jpgauto466.92529879999347autoNoneauto1auto466.92529879999347autoNoneautorightauto0.5387601000256836auto466.92529879999347autoNoneauto467.48621750005987autoNoneauto467.48621750005987autoNoneauto1autoleftauto0.1939733000472188auto467.48621750005987autoNoneauto467.70977620000485autoNoneauto468.7190005699871autoNoneautoNoneauto468.7190005699871autoNoneautoautoautoautoautoautoautoautoautoautoautoautoautoautoautoautoautoautoautoautoautoautoautoautoautoautoautoautoautoautoautoautoautoautoautoAdamFullauto001auto2021_Mar_30_1355autoAB_pic_singleT2auto2020.2.10auto60.2183275764758auto
ABautolag6auto6auto5auto11auto0.2auto0.05auto0.5autoauto0auto1auto1auto8autoautoautoautoautoautoautoautoautoautoautorose.jpgautojellybean.jpgautolollipop04.jpgautonosmokingsign.jpgautoscorpion.jpgautochristmastree.jpgautocrosscountryski.jpgautobutterfly.jpgautobrownsugar.jpgautotank.jpgautotent.jpgautofrisbee.jpgautostool01.jpgautosausage.jpgautocigar.jpgautodoghouse.jpgautoskunk.jpgauto468.7185717000393auto471.4674566000467auto471.2181496999692autoNoneauto1auto1auto13auto471.7175266999984autoNoneauto471.7175266999984autoNoneauto.\resources\tent.jpgauto475.218608199968autoNoneauto1auto475.218608199968autoNoneautoleftauto0.44481680006720126auto475.218608199968autoNoneauto475.6840541000711autoNoneauto475.6840541000711autoNoneauto1autoleftauto0.21062929998151958auto475.6840541000711autoNoneauto475.9164795000106autoNoneauto476.9158891699975autoNoneautoNoneauto476.9158891699975autoNoneautoautoautoautoautoautoautoautoautoautoautoautoautoautoautoautoautoautoautoautoautoautoautoautoautoautoautoautoautoautoautoautoautoautoautoAdamFullauto001auto2021_Mar_30_1355autoAB_pic_singleT2auto2020.2.10auto60.2183275764758auto
ABautolag4auto4auto3auto7auto0.2auto0.05auto0.5autoauto0auto2auto2auto1autoautoautoautoautoautoautoautoautoautoautowindmill.jpgautomouse.jpgautomusicsheet.jpgautoicecube02.jpgautorubikcube.jpgautosheep.jpgautohulahoop.jpgautokey07.jpgautospicerack.jpgautohumanskeleton.jpgautoairhockeytable.jpgautofrenchfries.jpgautoswing.jpgautosnowshovel.jpgautobowlingpin.jpgautodreamcatcher.jpgautoskateboard.jpgauto476.9163663999643auto479.66468390007503auto479.41528539999854autoNoneauto0auto1auto9auto479.9147817000048autoNoneauto479.9147817000048autoNoneauto.\resources\hulahoop.jpgauto482.4160955999978autoNoneauto1auto482.4160955999978autoNoneautorightauto0.530558800091967auto482.4160955999978autoNoneauto482.9649417999899autoNoneauto482.9649417999899autoNoneauto1autoleftauto0.2095108999637887auto482.9649417999899autoNoneauto483.19677879998926autoNoneauto484.1974480700213autoNoneautoNoneauto484.1974480700213autoNoneautoautoautoautoautoautoautoautoautoautoautoautoautoautoautoautoautoautoautoautoautoautoautoautoautoautoautoautoautoautoautoautoautoautoautoAdamFullauto001auto2021_Mar_30_1355autoAB_pic_singleT2auto2020.2.10auto60.2183275764758auto
ABautolag5auto5auto4auto9auto0.2auto0.05auto0.5autoauto0auto3auto3auto6autoautoautoautoautoautoautoautoautoautoautotoyanimal05.jpgautosteeringwheel.jpgautogreywolf.jpgautojeans01.jpgautocannon.jpgautocoffeemaker.jpgautococktailshrimp02.jpgautomummy.jpgautokite.jpgautostatue.jpgautotoolbox02.jpgautobadmintonracket.jpgautotulip02.jpgautobed.jpgautogranolabar01.jpgautopigeon.jpgautoharmonica.jpgauto484.19771700003184auto486.96316839999054auto486.69719430000987autoNoneauto1auto1auto11auto487.1968320000451autoNoneauto487.1968320000451autoNoneauto.\resources\kite.jpgauto490.1968051000731autoNoneauto1auto490.1968051000731autoNoneautoleftauto0.7203779000556096auto490.1968051000731autoNoneauto490.9459120000247autoNoneauto490.9459120000247autoNoneauto1autoleftauto0.15521849994547665auto490.9459120000247autoNoneauto491.12857389997225autoNoneauto492.12851587005423autoNoneautoNoneauto492.12851587005423autoNoneautoautoautoautoautoautoautoautoautoautoautoautoautoautoautoautoautoautoautoautoautoautoautoautoautoautoautoautoautoautoautoautoautoautoautoAdamFullauto001auto2021_Mar_30_1355autoAB_pic_singleT2auto2020.2.10auto60.2183275764758auto
ABautolag1auto1auto4auto5auto0.2auto0.05auto0.5autoauto0auto4auto4auto12autoautoautoautoautoautoautoautoautoautoautoparkfountain.jpgautoporcupine.jpgautotoucan.jpgautoparrot01.jpgautofrisbee.jpgautoant.jpgautolizard.jpgautoducttape.jpgautoeye.jpgautogiraffe.jpgautonose.jpgautobridge.jpgautowindmill.jpgautomakiroll.jpgautobirdnest.jpgautolily.jpgautofunnel.jpgauto492.13315979996696auto494.89416220004205auto494.6276127999881autoNoneauto0auto1auto7auto495.1318428000668autoNoneauto495.1318428000668autoNoneauto.\resources\frisbee.jpgauto497.1355137999635autoNoneauto1auto497.1355137999635autoNoneautorightauto0.7301421000156552auto497.1355137999635autoNoneauto497.89357229997404autoNoneauto497.89357229997404autoNoneauto1autoleftauto0.1734384000301361auto497.89357229997404autoNoneauto498.09357520006597autoNoneauto499.0926808700664autoNoneautoNoneauto499.0926808700664autoNoneautoautoautoautoautoautoautoautoautoautoautoautoautoautoautoautoautoautoautoautoautoautoautoautoautoautoautoautoautoautoautoautoautoautoautoAdamFullauto001auto2021_Mar_30_1355autoAB_pic_singleT2auto2020.2.10auto60.2183275764758auto
ABautolag7auto7auto4auto11auto0.2auto0.05auto0.5autoauto0auto5auto5auto2autoautoautoautoautoautoautoautoautoautoautoparkfountain.jpgautopunchingbag.jpgautosnowman.jpgautobaseballbat.jpgautoknee.jpgautocross01.jpgautochurch.jpgautoarrow02.jpgautopooltable.jpgautobed.jpgautobacon.jpgautogranolabar01.jpgautofireplace.jpgautosheep.jpgautochefshat.jpgautoharmonica.jpgautopeacock.jpgauto499.09366140002385auto501.8580084000714auto501.59186659997795autoNoneauto1auto1auto13auto502.09213730006013autoNoneauto502.09213730006013autoNoneauto.\resources\bacon.jpgauto505.59226559998933autoNoneauto1auto505.59226559998933autoNoneautoleftauto0.8492781000677496auto505.59226559998933autoNoneauto506.4598121000454autoNoneauto506.4598121000454autoNoneauto1autoleftauto0.1513173000421375auto506.4598121000454autoNoneauto506.6234425000148autoNoneauto507.62327996999954autoNoneautoNoneauto507.62327996999954autoNoneautoautoautoautoautoautoautoautoautoautoautoautoautoautoautoautoautoautoautoautoautoautoautoautoautoautoautoautoautoautoautoautoautoautoautoAdamFullauto001auto2021_Mar_30_1355autoAB_pic_singleT2auto2020.2.10auto60.2183275764758auto
ABautolag2auto2auto5auto7auto0.2auto0.05auto0.5autoauto0auto6auto6auto9autoautoautoautoautoautoautoautoautoautoautocloud.jpgautocat.jpgautoknee.jpgautodrumset.jpgautonunchuk.jpgautopopcorn.jpgautochristmaslights.jpgautokey07.jpgautopanda.jpgautoswing.jpgautocalendar.jpgautoscorpion.jpgautolion.jpgautocashregister01.jpgautouprightpiano01.jpgautowindmill.jpgautohulahoop.jpgauto507.6238244000124auto510.3726324000163auto510.1243760000216autoNoneauto0auto0auto9auto510.63961379998364autoNoneauto510.63961379998364autoNoneauto.\resources\christmaslights.jpgauto513.1403364000143autoNoneauto1auto513.1403364000143autoNoneautorightauto0.17636140005197376auto513.1403364000143autoNoneauto513.3403020000551autoNoneauto513.3403020000551autoNoneauto1autorightauto0.23118429991882294auto513.3403020000551autoNoneauto513.5883818999864autoNoneauto514.5882041699718autoNoneautoNoneauto514.5882041699718autoNoneautoautoautoautoautoautoautoautoautoautoautoautoautoautoautoautoautoautoautoautoautoautoautoautoautoautoautoautoautoautoautoautoautoautoautoAdamFullauto001auto2021_Mar_30_1355autoAB_pic_singleT2auto2020.2.10auto60.2183275764758auto
ABautolag7auto7auto5auto12auto0.2auto0.05auto0.5autoauto0auto7auto7auto7autoautoautoautoautoautoautoautoautoautoautoenglishcucumber.jpgautouprightpiano01.jpgautoscorpion.jpgautotrampoline.jpgautoslug.jpgautosnowshovel.jpgautohotdogweiner.jpgautopopcorn.jpgautoboat.jpgautomicrowave.jpgautolawnmower.jpgautodoghouse.jpgautoseagull.jpgautocandycane01a.jpgautozebra.jpgautoaccordion01.jpgautobanjo.jpgauto514.5882397000678auto517.3374861000339auto517.0876162999775autoNoneauto0auto0auto14auto517.5887361000059autoNoneauto517.5887361000059autoNoneauto.\resources\doghouse.jpgauto521.3414488000562autoNoneauto1auto521.3414488000562autoNoneautorightauto0.5492093999637291auto521.3414488000562autoNoneauto521.9211229999783autoNoneauto521.9211229999783autoNoneauto1autorightauto0.20680990000255406auto521.9211229999783autoNoneauto522.1530952000758autoNoneauto523.1526945699937autoNoneautoNoneauto523.1526945699937autoNoneautoautoautoautoautoautoautoautoautoautoautoautoautoautoautoautoautoautoautoautoautoautoautoautoautoautoautoautoautoautoautoautoautoautoautoAdamFullauto001auto2021_Mar_30_1355autoAB_pic_singleT2auto2020.2.10auto60.2183275764758auto
ABautolag3auto3auto5auto8auto0.2auto0.05auto0.5autoauto0auto8auto8auto10autoautoautoautoautoautoautoautoautoautoautoseal.jpgautotank.jpgautozebra.jpgautokangaroo.jpgautovacuumcleaner01.jpgautoarrow02.jpgautofirehydrant.jpgautocannon.jpgautobench01.jpgautofoldingchair.jpgautosoccerball.jpgautoredfox.jpgautobirdfeeder.jpgautovulture.jpgautocross01.jpgautofloorlamp.jpgautofunnel.jpgauto523.154996600002auto525.9182251000311auto525.6517416000133autoNoneauto1auto0auto10auto526.1519392000046autoNoneauto526.1519392000046autoNoneauto.\resources\cannon.jpgauto528.9013452000218autoNoneauto1auto528.9013452000218autoNoneautoleftauto0.45528059999924153auto528.9013452000218autoNoneauto529.385576199973autoNoneauto529.385576199973autoNoneauto1autorightauto0.21628580009564757auto529.385576199973autoNoneauto529.6168273000512autoNoneauto530.6171117700636autoNoneautoNoneauto530.6171117700636autoNoneautoautoautoautoautoautoautoautoautoautoautoautoautoautoautoautoautoautoautoautoautoautoautoautoautoautoautoautoautoautoautoautoautoautoautoAdamFullauto001auto2021_Mar_30_1355autoAB_pic_singleT2auto2020.2.10auto60.2183275764758auto
ABautolag6auto6auto5auto11auto0.2auto0.05auto0.5autoauto0auto9auto9auto0autoautoautoautoautoautoautoautoautoautoautocactus.jpgautoeyepatch.jpgautohandcuffs.jpgautobowtie.jpgautoarrow02.jpgautohulahoop.jpgautowitchhat.jpgautowaterfall.jpgautoharmonica.jpgautojellyfish.jpgautobridge.jpgautopirateflag.jpgautoxylophone.jpgautodreamcatcher.jpgautomouse.jpgautoshowerhead01.jpgautocloud.jpgauto530.6188448000466auto533.3827099000337auto533.1167004000163autoNoneauto1auto1auto13auto533.6177418000298autoNoneauto533.6177418000298autoNoneauto.\resources\bridge.jpgauto537.1165302000009autoNoneauto1auto537.1165302000009autoNoneautoleftauto0.9393484001047909auto537.1165302000009autoNoneauto538.0857445000438autoNoneauto538.0857445000438autoNoneauto1autoleftauto0.19179069995880127auto538.0857445000438autoNoneauto538.298323999974autoNoneauto539.2979878700338autoNoneautoNoneauto539.2979878700338autoNoneautoautoautoautoautoautoautoautoautoautoautoautoautoautoautoautoautoautoautoautoautoautoautoautoautoautoautoautoautoautoautoautoautoautoautoAdamFullauto001auto2021_Mar_30_1355autoAB_pic_singleT2auto2020.2.10auto60.2183275764758auto
ABautolag4auto4auto4auto8auto0.2auto0.05auto0.5autoauto0auto10auto10auto13autoautoautoautoautoautoautoautoautoautoautourinal.jpgautochurch.jpgautobathtub.jpgautotarantula.jpgautowindshieldwiper02.jpgautotennisracket.jpgautofirehydrant.jpgautocat.jpgautotulip02.jpgautoescalator.jpgautonunchuk.jpgautovulture.jpgautodragonfly01.jpgautofortunecookie.jpgautosteeringwheel.jpgautoshowerhead01.jpgautotriangle.jpgauto539.2979586999863auto542.0468338000355auto541.7972385999747autoNoneauto0auto1auto10auto542.2973669000203autoNoneauto542.2973669000203autoNoneauto.\resources\cat.jpgauto545.0575449999887autoNoneauto1auto545.0575449999887autoNoneautorightauto0.9574712000321597auto545.0575449999887autoNoneauto546.0313935000449autoNoneauto546.0313935000449autoNoneauto1autoleftauto0.19074380001984537auto546.0313935000449autoNoneauto546.2457991000265autoNoneauto547.2455509700579autoNoneautoNoneauto547.2455509700579autoNoneautoautoautoautoautoautoautoautoautoautoautoautoautoautoautoautoautoautoautoautoautoautoautoautoautoautoautoautoautoautoautoautoautoautoautoAdamFullauto001auto2021_Mar_30_1355autoAB_pic_singleT2auto2020.2.10auto60.2183275764758auto
ABautolag5auto5auto4auto9auto0.2auto0.05auto0.5autoauto0auto11auto11auto11autoautoautoautoautoautoautoautoautoautoautomattress.jpgautochair.jpgautoceilingfan01.jpgautoxylophone.jpgautogolfball.jpgautofirehydrant.jpgautoturnstile.jpgautoshower.jpgautobirdnest.jpgautotarantula.jpgautohotdogweiner.jpgautoleafblower01.jpgautolightswitch01.jpgautoipad02.jpgautokneepad01c.jpgautoelbow.jpgautolily.jpgauto547.2469101999886auto550.0117438000161auto549.7452342000324autoNoneauto1auto1auto11auto550.2448818000266autoNoneauto550.2448818000266autoNoneauto.\resources\birdnest.jpgauto553.2452491000295autoNoneauto1auto553.2452491000295autoNoneautoleftauto0.6248763999901712auto553.2452491000295autoNoneauto553.894555100007autoNoneauto553.894555100007autoNoneauto1autoleftauto0.18140749994199723auto553.894555100007autoNoneauto554.0931968999794autoNoneauto555.0942921699956autoNoneautoNoneauto555.0942921699956autoNoneautoautoautoautoautoautoautoautoautoautoautoautoautoautoautoautoautoautoautoautoautoautoautoautoautoautoautoautoautoautoautoautoautoautoautoAdamFullauto001auto2021_Mar_30_1355autoAB_pic_singleT2auto2020.2.10auto60.2183275764758auto
ABautolag1auto1auto3auto4auto0.2auto0.05auto0.5autoauto0auto12auto12auto3autoautoautoautoautoautoautoautoautoautoautoceilingfan01.jpgautoknee.jpgautoscorpion.jpgautocobra.jpgautobirthdaycandle.jpgautodartboard.jpgautosteeringwheel.jpgautobeerbottle.jpgautomarble.jpgautobrownsugar.jpgautotarantula.jpgautocoffeemaker.jpgautofishingrod.jpgautosaxophone.jpgautofireplace.jpgautolightswitch01.jpgautoafricanelephant.jpgauto555.0937240000349auto557.8590887000319auto557.5758534000488autoNoneauto0auto1auto6auto558.0761537000071autoNoneauto558.0761537000071autoNoneauto.\resources\cobra.jpgauto559.826865100069autoNoneauto1auto559.826865100069autoNoneautorightauto0.7543947999365628auto559.826865100069autoNoneauto560.6081298000645autoNoneauto560.6081298000645autoNoneauto1autoleftauto0.21756869996897876auto560.6081298000645autoNoneauto560.8412892000051autoNoneauto561.84148227002autoNoneautoNoneauto561.84148227002autoNoneautoautoautoautoautoautoautoautoautoautoautoautoautoautoautoautoautoautoautoautoautoautoautoautoautoautoautoautoautoautoautoautoautoautoautoAdamFullauto001auto2021_Mar_30_1355autoAB_pic_singleT2auto2020.2.10auto60.2183275764758auto
ABautolag2auto2auto3auto5auto0.2auto0.05auto0.5autoauto0auto13auto13auto4autoautoautoautoautoautoautoautoautoautoautovulture.jpgautobanjo.jpgautobull.jpgautopopcorn.jpgautobowlingpin.jpgautotoucan.jpgautodrumset.jpgautowheelbarrow01.jpgautotrampoline.jpgautodormer.jpgautomrpotatohead.jpgautodolphin01.jpgautocymbal.jpgautofridge.jpgautoleafblower01.jpgautochimney.jpgautoanchor.jpgauto561.843006900046auto564.6070966999978auto564.3410480000312autoNoneauto1auto0auto7auto564.840440500062autoNoneauto564.840440500062autoNoneauto.\resources\bowlingpin.jpgauto566.8485494999913autoNoneauto1auto566.8485494999913autoNoneautoleftauto0.5107174000004306auto566.8485494999913autoNoneauto567.3896646000212autoNoneauto567.3896646000212autoNoneauto1autorightauto0.10922969994135201auto567.3896646000212autoNoneauto567.5233619000064autoNoneauto568.5234381700633autoNoneautoNoneauto568.5234381700633autoNoneautoautoautoautoautoautoautoautoautoautoautoautoautoautoautoautoautoautoautoautoautoautoautoautoautoautoautoautoautoautoautoautoautoautoautoAdamFullauto001auto2021_Mar_30_1355autoAB_pic_singleT2auto2020.2.10auto60.2183275764758auto
autoautoautoautoautoautoautoautoautoautoautoautoautoautoautoautoautoautoautoautoautoautoautoautoautoautoautoautoautoautoautoautoautoautoautoautoautoautoautoautoautoautoautoautoautoautoautoautoautoautoautoautoautoautoautoautoautoautoautoautoautoautoautoautoautoautoautoautoautoautoautoautoautoautoautoautoauto568.5232783000683autoNoneautospaceauto1.6315074000740424auto568.5232783000683autoNoneautoautoautoautoautoautoautoautoautoautoautoautoautoautoautoautoautoautoautoautoautoautoautoautoautoautoautoautoautoAdamFullauto001auto2021_Mar_30_1355autoAB_pic_singleT2auto2020.2.10auto60.2183275764758auto
ABautolag6auto6auto5auto11auto0.2auto0.05auto0.5autorampautoautoautoautoauto0auto0auto0auto0autoautoautoautoautoautoautocork02.jpgautotoad.jpgautosink.jpgautoexitsign.jpgautocannon.jpgautoboxingglove01.jpgautonoparkingsign.jpgautolightswitch01.jpgautoplatypus.jpgautosausage.jpgautopunchingbag.jpgautosheep.jpgautouprightpiano01.jpgautobirdnest.jpgautomummy.jpgautosnowshovel.jpgautomailbox02.jpgautoautoautoautoauto1auto0auto13autoautoautoautoauto.\resources\punchingbag.jpgautoautoauto1autoautoautoautoautoautoautoautoautoautoauto1autoautoautoautoautoautoauto577.3538621699903autoNoneautoNoneauto577.3538621699903autoNoneautoautoautoautoautoautoauto570.2124258000404auto572.9729287000373auto572.705495000002autoNoneauto0.2auto573.1887958999723autoNoneauto573.1887958999723autoNoneauto576.7049819000531autoNoneauto576.7049819000531autoNoneautoleftauto0.5028295000083745auto576.7049819000531autoNoneauto577.2375525999814autoNoneauto577.2375525999814autoNoneautorightauto0.0966605000430718auto577.2375525999814autoNoneautoautoautoautoAdamFullauto001auto2021_Mar_30_1355autoAB_pic_singleT2auto2020.2.10auto60.2183275764758auto
ABautolag4auto4auto4auto8auto0.19066666667auto0.048auto0.48autorampautoautoautoautoauto0auto1auto1auto1autoautoautoautoautoautoautosoccerball.jpgautohandcuffs.jpgautoseagull.jpgautoathleticsock.jpgautocloud.jpgautobacon.jpgautofrisbee.jpgautosaltshaker03a.jpgautotable01.jpgautoceilingfan01.jpgautosafe.jpgautotie02.jpgautodragonfly01.jpgautokiwi03.jpgautoeyepatch.jpgautospicerack.jpgautopig.jpgautoautoautoautoauto1auto1auto10autoautoautoautoauto.\resources\saltshaker03a.jpgautoautoauto1autoautoautoautoautoautoautoautoautoautoauto1autoautoautoautoautoautoauto583.8691211699974autoNoneautoNoneauto583.8691211699974autoNoneautoautoautoautoautoautoauto577.3597945000511auto580.119337500073auto579.8529769000597autoNoneauto0.19066666667auto580.353103899979autoNoneauto580.353103899979autoNoneauto582.9861231000395autoNoneauto582.9861231000395autoNoneautoleftauto0.6937703000148758auto582.9861231000395autoNoneauto583.755309500033autoNoneauto583.755309500033autoNoneautoleftauto0.09819489996880293auto583.755309500033autoNoneauto-10.001360791690049auto150.0000000424746autoautoAdamFullauto001auto2021_Mar_30_1355autoAB_pic_singleT2auto2020.2.10auto60.2183275764758auto
ABautolag7auto7auto4auto11auto0.18133333334auto0.046auto0.45999999999999996autorampautoautoautoautoauto0auto2auto2auto2autoautoautoautoautoautoautosteeringwheel.jpgautolightswitch01.jpgautosnowshoe.jpgautokneepad01c.jpgautoknee.jpgautocoffeemaker.jpgautocigar.jpgautojeep.jpgautoswing.jpgautoguitarcase.jpgautotulip02.jpgautobanjo.jpgautochristmaslights.jpgautoshovel01.jpgautopanda.jpgautotent.jpgautocork02.jpgautoautoautoautoauto1auto1auto13autoautoautoautoauto.\resources\tulip02.jpgautoautoauto1autoautoautoautoautoautoautoautoautoautoauto1autoautoautoautoautoautoauto591.2500721700256autoNoneautoNoneauto591.2500721700256autoNoneautoautoautoautoautoautoauto583.8738449000521auto586.6341213000705auto586.3672071000328autoNoneauto0.18133333334auto586.8679449000629autoNoneauto586.8679449000629autoNoneauto590.068065200001autoNoneauto590.068065200001autoNoneautoleftauto0.9758945999201387auto590.068065200001autoNoneauto591.1073705999879autoNoneauto591.1073705999879autoNoneautoleftauto0.11360049992799759auto591.1073705999879autoNoneauto-10.002719446389834auto150.00000013655824autoautoAdamFullauto001auto2021_Mar_30_1355autoAB_pic_singleT2auto2020.2.10auto60.2183275764758auto
ABautolag5auto5auto5auto10auto0.17200000001000001auto0.044auto0.43999999999999995autorampautoautoautoautoauto0auto3auto3auto3autoautoautoautoautoautoautofortunecookie.jpgautofrisbee.jpgautoairhockeytable.jpgautokite.jpgautochefshat.jpgautobirdfeeder.jpgautocat.jpgautowindmill.jpgautoelectrictoothbrush01c.jpgautolocker.jpgautocork02.jpgautobluejay.jpgautotree.jpgautoducttape.jpgautodonut.jpgautoworldmap.jpgautodromedary.jpgautoautoautoautoauto1auto0auto12autoautoautoautoauto.\resources\locker.jpgautoautoauto1autoautoautoautoautoautoautoautoautoautoauto1autoautoautoautoautoautoauto597.7147150700679autoNoneautoNoneauto597.7147150700679autoNoneautoautoautoautoautoautoauto591.253501500003auto594.0149464000715auto593.7487601999892autoNoneauto0.17200000001000001auto594.2489923000103autoNoneauto594.2489923000103autoNoneauto597.0648624000605autoNoneauto597.0648624000605autoNoneautoleftauto0.38260460004676133auto597.0648624000605autoNoneauto597.4969952000538autoNoneauto597.4969952000538autoNoneautorightauto0.20237239997368306auto597.4969952000538autoNoneauto-10.004075333761547auto150.00000038823157autoautoAdamFullauto001auto2021_Mar_30_1355autoAB_pic_singleT2auto2020.2.10auto60.2183275764758auto
ABautolag2auto2auto3auto5auto0.16266666668000002auto0.041999999999999996auto0.41999999999999993autorampautoautoautoautoauto0auto4auto4auto4autoautoautoautoautoautoautobluejay.jpgautocymbal.jpgautomouse.jpgautotrumpet.jpgautonunchuk.jpgautoshowerhead01.jpgautosausage.jpgautopeacock.jpgautokey07.jpgautoacorn.jpgautoelbow.jpgautohockeypuck.jpgautoxylophone.jpgautoceilingfan01.jpgautopumpkin.jpgautoflamingo.jpgautobirdnest.jpgautoautoautoautoauto1auto0auto7autoautoautoautoauto.\resources\nunchuk.jpgautoautoauto1autoautoautoautoautoautoautoautoautoautoauto1autoautoautoautoautoautoauto603.1129706699634autoNoneautoNoneauto603.1129706699634autoNoneautoautoautoautoautoautoauto597.7149227000773auto600.480109600001auto600.2139934999868autoNoneauto0.16266666668000002auto600.7134021000238autoNoneauto600.7134021000238autoNoneauto602.3641730999807autoNoneauto602.3641730999807autoNoneautoleftauto0.5290427000727504auto602.3641730999807autoNoneauto602.9514596000081autoNoneauto602.9514596000081autoNoneautorightauto0.1426476000342518auto602.9514596000081autoNoneauto-10.005426297173447auto150.0000011389316autoautoAdamFullauto001auto2021_Mar_30_1355autoAB_pic_singleT2auto2020.2.10auto60.2183275764758auto
ABautolag3auto3auto5auto8auto0.15333333335000002auto0.039999999999999994auto0.3999999999999999autorampautoautoautoautoauto0auto5auto5auto5autoautoautoautoautoautoautopenguin.jpgautocurtain.jpgautorecyclingbin.jpgautobrownsugar.jpgautosandcastle.jpgautofortunecookie.jpgautobirdfeeder.jpgautoschoolbus.jpgautowindshieldwiper02.jpgautobridge.jpgautotree.jpgautogreatwhiteshark.jpgautochristmaslights.jpgautodrumset.jpgautosheep.jpgautoswordfish.jpgautomouse.jpgautoautoautoautoauto0auto0auto10autoautoautoautoauto.\resources\schoolbus.jpgautoautoauto1autoautoautoautoautoautoautoautoautoautoauto1autoautoautoautoautoautoauto608.8118968700059autoNoneautoNoneauto608.8118968700059autoNoneautoautoautoautoautoautoauto603.1166514999932auto605.8785096000647auto605.6113574000774autoNoneauto0.15333333335000002auto606.1124567000661autoNoneauto606.1124567000661autoNoneauto608.2451954999706autoNoneauto608.2451954999706autoNoneautorightauto0.3360701999627054auto608.2451954999706autoNoneauto608.6479260000633autoNoneauto608.6479260000633autoNoneautorightauto0.1453438000753522auto608.6479260000633autoNoneauto-10.006764806001751auto150.00000351094027autoautoAdamFullauto001auto2021_Mar_30_1355autoAB_pic_singleT2auto2020.2.10auto60.2183275764758auto
ABautolag1auto1auto4auto5auto0.14400000002000002auto0.03799999999999999auto0.3799999999999999autorampautoautoautoautoauto0auto6auto6auto6autoautoautoautoautoautoautostool01.jpgautosmokingpipe.jpgautoskippingrope.jpgautobench01.jpgautocannon.jpgautoathleticsock.jpgautowallclock.jpgautotent.jpgautocrab01.jpgautourinal.jpgautogranolabar01.jpgautopirateflag.jpgautofootball.jpgautoshovel01.jpgautochainsaw.jpgautocrosscountryski.jpgautohotdogweiner.jpgautoautoautoautoauto0auto0auto7autoautoautoautoauto.\resources\cannon.jpgautoautoauto1autoautoautoautoautoautoautoautoautoautoauto1autoautoautoautoautoautoauto613.9436349699739autoNoneautoNoneauto613.9436349699739autoNoneautoautoautoautoautoautoauto608.8124368999852auto611.5766202000668auto611.3105816000607autoNoneauto0.14400000002000002auto611.8102167000761autoNoneauto611.8102167000761autoNoneauto613.2770527000539autoNoneauto613.2770527000539autoNoneautorightauto0.4564750000135973auto613.2770527000539autoNoneauto613.7913011000492autoNoneauto613.7913011000492autoNoneautorightauto0.13406930002383888auto613.7913011000492autoNoneauto-10.008064094004647auto150.00001124737665autoautoAdamFullauto001auto2021_Mar_30_1355autoAB_pic_singleT2auto2020.2.10auto60.2183275764758auto
ABautolag6auto6auto5auto11auto0.13466666669000002auto0.03599999999999999auto0.3599999999999999autorampautoautoautoautoauto0auto7auto7auto7autoautoautoautoautoautoautoworldmap.jpgautosteeringwheel.jpgautohumanskeleton.jpgautochefshat.jpgautofireplace.jpgautokite.jpgautomakiroll.jpgautocigar.jpgautogiraffe.jpgautobench01.jpgautoseal.jpgautoarrow02.jpgautoparkingmeter.jpgautowheelbarrow01.jpgautoleafrake.jpgautomouse.jpgautoporcupine.jpgautoautoautoautoauto0auto0auto13autoautoautoautoauto.\resources\seal.jpgautoautoauto1autoautoautoautoautoautoautoautoautoautoauto1autoautoautoautoautoautoauto619.8917471699882autoNoneautoNoneauto619.8917471699882autoNoneautoautoautoautoautoautoauto613.9444503000705auto616.7093744999729auto616.4418590000132autoNoneauto0.13466666669000002auto616.9425546000712autoNoneauto616.9425546000712autoNoneauto619.3425792000489autoNoneauto619.3425792000489autoNoneautorightauto0.3507684998912737auto619.3425792000489autoNoneauto619.7681160999928autoNoneauto619.7681160999928autoNoneautorightauto0.1074199000140652auto619.7681160999928autoNoneauto-10.009227634136485auto150.00003695987715autoautoAdamFullauto001auto2021_Mar_30_1355autoAB_pic_singleT2auto2020.2.10auto60.2183275764758auto
ABautolag3auto3auto4auto7auto0.12533333336000002auto0.03399999999999999auto0.33999999999999986autorampautoautoautoautoauto0auto8auto8auto8autoautoautoautoautoautoautopenguin.jpgautobed.jpgautomasquerademask01.jpgautosquid.jpgautowaterfall.jpgautochair.jpgautotiger02.jpgautocactus.jpgautojackrabbit.jpgautohotdogweiner.jpgautolollipop04.jpgautolicenseplate.jpgautosledgehammer.jpgautostatue.jpgautorollerblade.jpgautoboat.jpgautocorn02.jpgautoautoautoautoauto0auto0auto9autoautoautoautoauto.\resources\tiger02.jpgautoautoauto1autoautoautoautoautoautoautoautoautoautoauto1autoautoautoautoautoautoauto625.0237920699641autoNoneautoNoneauto625.0237920699641autoNoneautoautoautoautoautoautoauto619.8958955999697auto622.6570312000113auto622.3905577000696autoNoneauto0.12533333336000002auto622.8911047000438autoNoneauto622.8911047000438autoNoneauto624.4906363000628autoNoneauto624.4906363000628autoNoneautorightauto0.33348729996941984auto624.4906363000628autoNoneauto624.8802600000054autoNoneauto624.8802600000054autoNoneautorightauto0.12425730004906654auto624.8802600000054autoNoneauto-10.009903325668345auto150.00012340554508autoautoAdamFullauto001auto2021_Mar_30_1355autoAB_pic_singleT2auto2020.2.10auto60.2183275764758auto
ABautolag4auto4auto4auto8auto0.11600000003000002auto0.03199999999999999auto0.31999999999999984autorampautoautoautoautoauto0auto9auto9auto9autoautoautoautoautoautoautopolarbear.jpgautoicecube02.jpgautodreamcatcher.jpgautonoparkingsign.jpgautocheetah.jpgautorubikcube.jpgautoexitsign.jpgautosoccerball.jpgautocactus.jpgautopokerchips.jpgautoparrot01.jpgautopeacock.jpgautojackrabbit.jpgautobridge.jpgautobull.jpgautobasketball01.jpgautosafe.jpgautoautoautoautoauto1auto0auto10autoautoautoautoauto.\resources\soccerball.jpgautoautoauto1autoautoautoautoautoautoautoautoautoautoauto1autoautoautoautoautoautoauto630.355053469981autoNoneautoNoneauto630.355053469981autoNoneautoautoautoautoautoautoauto625.0243533999892auto627.7890939000063auto627.5228374999715autoNoneauto0.11600000003000002auto628.0220777000068autoNoneauto628.0220777000068autoNoneauto629.6576295000268autoNoneauto629.6576295000268autoNoneautoleftauto0.540791800012812auto629.6576295000268autoNoneauto630.2620110000717autoNoneauto630.2620110000717autoNoneautorightauto0.06419950001873076auto630.2620110000717autoNoneauto-10.0087969897031auto150.00041576432758autoautoAdamFullauto001auto2021_Mar_30_1355autoAB_pic_singleT2auto2020.2.10auto60.2183275764758auto
ABautolag5auto5auto4auto9auto0.10666666670000002auto0.029999999999999985auto0.2999999999999998autorampautoautoautoautoauto0auto10auto10auto10autoautoautoautoautoautoautoturnstile.jpgautomasquerademask01.jpgautofoot.jpgautoipad02.jpgautosnowshovel.jpgautosaxophone.jpgautofingerprint.jpgautolip.jpgautojellybean.jpgautoeyepatch.jpgautohotdogweiner.jpgautomattress.jpgautogiraffe.jpgautowheelchair.jpgautosurfboard.jpgautobacon.jpgautohorse.jpgautoautoautoautoauto1auto0auto11autoautoautoautoauto.\resources\jellybean.jpgautoautoauto0autoautoautoautoautoautoautoautoautoautoauto1autoautoautoautoautoautoauto637.1039320700569autoNoneautoNoneauto637.1039320700569autoNoneautoautoautoautoautoautoauto630.3577318000607auto633.1205500999931auto632.854553900077autoNoneauto0.10666666670000002auto633.3548247000435autoNoneauto633.3548247000435autoNoneauto635.0048442999832autoNoneauto635.0048442999832autoNoneautorightauto0.5570925999199972auto635.0048442999832autoNoneauto635.6224657000275autoNoneauto635.6224657000275autoNoneautorightauto1.4632934000110254auto635.6224657000275autoNoneauto-12.689916469520137auto149.71462399354266autoautoAdamFullauto001auto2021_Mar_30_1355autoAB_pic_singleT2auto2020.2.10auto60.2183275764758auto
ABautolag2auto2auto3auto5auto0.09733333337000002auto0.027999999999999983auto0.3autorampautoautoautoautoauto0auto11auto11auto11autoautoautoautoautoautoautoant.jpgautobutterfly.jpgautofoosballtable.jpgautosnowshovel.jpgautolicenseplate.jpgautomouse.jpgautocigar.jpgautoarmadillo.jpgautomattress.jpgautosquirrel.jpgautoshovel01.jpgautofootballhelmet.jpgautotreadmill.jpgautowitchhat.jpgautolip.jpgautopooltable.jpgautoicecube02.jpgautoautoautoautoauto1auto1auto7autoautoautoautoauto.\resources\licenseplate.jpgautoautoauto1autoautoautoautoautoautoautoautoautoautoauto1autoautoautoautoautoautoauto642.1525972700678autoNoneautoNoneauto642.1525972700678autoNoneautoautoautoautoautoautoauto637.109250199981auto639.8697080999846auto639.6017245000694autoNoneauto0.09733333337000002auto640.102083100006autoNoneauto640.102083100006autoNoneauto641.1247728000162autoNoneauto641.1247728000162autoNoneautoleftauto0.8195026000030339auto641.1247728000162autoNoneauto642.006958300015autoNoneauto642.006958300015autoNoneautoleftauto0.12880669999867678auto642.006958300015autoNoneauto-14.20700330603798auto149.54740109096164autoautoAdamFullauto001auto2021_Mar_30_1355autoAB_pic_singleT2auto2020.2.10auto60.2183275764758auto
ABautolag1auto1auto4auto5auto0.08800000004000003auto0.02599999999999998auto0.3autorampautoautoautoautoauto0auto12auto12auto12autoautoautoautoautoautoautohotdogweiner.jpgautorose.jpgautoanchor.jpgautoleafblower01.jpgautolawnmower.jpgautoscorpion.jpgautosmokingpipe.jpgautosquirrel.jpgautotire.jpgautoladder.jpgautocow.jpgautostool01.jpgautostatue.jpgautowaterfountain02.jpgautokneepad01c.jpgautoironingboard01.jpgautoescalator.jpgautoautoautoautoauto0auto0auto7autoautoautoautoauto.\resources\lawnmower.jpgautoautoauto1autoautoautoautoautoautoautoautoautoautoauto1autoautoautoautoautoautoauto647.0173952700337autoNoneautoNoneauto647.0173952700337autoNoneautoautoautoautoautoautoauto642.1533320000162auto644.9178535999963auto644.6503428000724autoNoneauto0.08800000004000003auto645.1512376000173autoNoneauto645.1512376000173autoNoneauto646.0672589000314autoNoneauto646.0672589000314autoNoneautorightauto0.6394955000141636auto646.0672589000314autoNoneauto646.772771100048autoNoneauto646.772771100048autoNoneautorightauto0.21951460000127554auto646.772771100048autoNoneauto-13.759484060214264auto149.55940128148626autoautoAdamFullauto001auto2021_Mar_30_1355autoAB_pic_singleT2auto2020.2.10auto60.2183275764758auto
ABautolag7auto7auto5auto12auto0.07866666671000003auto0.02399999999999998auto0.3autorampautoautoautoautoauto0auto13auto13auto13autoautoautoautoautoautoautoafricanelephant.jpgautoladybug03.jpgautoexitsign.jpgautonunchuk.jpgautoparkingmeter.jpgautozebra.jpgautofireplace.jpgautosledgehammer.jpgautobow.jpgautohockeystick.jpgautocandycane01a.jpgautoscooter.jpgautocymbal.jpgautospicerack.jpgautospiderweb.jpgautoswing.jpgautopeacock.jpgautoautoautoautoauto0auto1auto14autoautoautoautoauto.\resources\scooter.jpgautoautoauto1autoautoautoautoautoautoautoautoautoautoauto1autoautoautoautoautoautoauto653.2321210700087autoNoneautoNoneauto653.2321210700087autoNoneautoautoautoautoautoautoauto647.0178996999748auto649.7821668999968auto649.5160810999805autoNoneauto0.07866666671000003auto650.0172632000176autoNoneauto650.0172632000176autoNoneauto651.5663955999771autoNoneauto651.5663955999771autoNoneautorightauto1.3838650999823585auto651.5663955999771autoNoneauto653.0048998000566autoNoneauto653.0048998000566autoNoneautoleftauto0.20104890002403408auto653.0048998000566autoNoneauto-12.63728306041047auto149.60980126858334autoautoAdamFullauto001auto2021_Mar_30_1355autoAB_pic_singleT2auto2020.2.10auto60.2183275764758auto
ABautolag1auto1auto3auto4auto0.06933333338000003auto0.021999999999999978auto0.3autorampautoautoautoautoauto0auto14auto14auto14autoautoautoautoautoautoautobow.jpgautosandcastle.jpgautotreadmill.jpgautoenglishcucumber.jpgautorooster.jpgautoarrow02.jpgautotennisracket.jpgautoicecube02.jpgautoturnstile.jpgautocigar.jpgautobirdnest.jpgautomarble.jpgautogranolabar01.jpgautoafricanelephant.jpgautodrumset.jpgautojeep.jpgautobluejay.jpgautoautoautoautoauto0auto0auto6autoautoautoautoauto.\resources\englishcucumber.jpgautoautoauto1autoautoautoautoautoautoautoautoautoautoauto1autoautoautoautoautoautoauto657.6809432699578autoNoneautoNoneauto657.6809432699578autoNoneautoautoautoautoautoautoauto653.2349213999696auto655.9973711000057auto655.7307147000683autoNoneauto0.06933333338000003auto656.2305908000562autoNoneauto656.2305908000562autoNoneauto656.8910865000216autoNoneauto656.8910865000216autoNoneautorightauto0.5732578999595717auto656.8910865000216autoNoneauto657.519857199979autoNoneauto657.519857199979autoNoneautorightauto0.14281620003748685auto657.519857199979autoNoneauto-11.3570252834114auto149.64744296015175autoautoAdamFullauto001auto2021_Mar_30_1355autoAB_pic_singleT2auto2020.2.10auto60.2183275764758auto
ABautolag6auto6auto5auto11auto0.06000000005000003auto0.02auto0.3automainautoautoautoautoauto0auto15auto15auto15autoautoautoautoautoautoautobacon.jpgautoeyepatch.jpgautosquirrel.jpgautospicerack.jpgautotree.jpgautodaddylonglegs.jpgautotoolbox02.jpgautoboat.jpgautogreatwhiteshark.jpgautotriangle.jpgautocymbal.jpgautotelescope.jpgautotulip02.jpgautostatue.jpgautobluejay.jpgautoladybug03.jpgautofrenchfries.jpgautoautoautoautoauto1auto1auto13autoautoautoautoauto.\resources\cymbal.jpgautoautoauto1autoautoautoautoautoautoautoautoautoautoauto1autoautoautoautoautoautoauto663.0294214699883autoNoneautoNoneauto663.0294214699883autoNoneautoautoautoautoautoautoauto657.681660000002auto660.4456527000293auto660.1797936999938autoNoneauto0.08515561236769406auto660.6789677999914autoNoneauto660.6789677999914autoNoneauto662.1638862000545autoNoneauto662.1638862000545autoNoneautoleftauto0.6488783999811858auto662.1638862000545autoNoneauto662.875542200054autoNoneauto662.875542200054autoNoneautoleftauto0.128271900000982auto662.875542200054autoNoneauto-10.827242169223146auto149.63045418727083autoautoAdamFullauto001auto2021_Mar_30_1355autoAB_pic_singleT2auto2020.2.10auto60.2183275764758auto
ABautolag1auto1auto5auto6auto0.06000000005000003auto0.02auto0.3automainautoautoautoautoauto0auto16auto16auto16autoautoautoautoautoautoautoceilingfan01.jpgautodandelion.jpgautolocker.jpgautolollipop04.jpgautotable01.jpgautoapron.jpgautoworldmap.jpgautobeaver.jpgautowaterfountain02.jpgautoparachute.jpgautolawnmower.jpgautopirateflag.jpgautotoyanimal05.jpgautoschoolbus.jpgautopig.jpgautofireplace.jpgautomouse.jpgautoautoautoautoauto0auto0auto8autoautoautoautoauto.\resources\apron.jpgautoautoauto1autoautoautoautoautoautoautoautoautoautoauto1autoautoautoautoautoautoauto667.6114417699631autoNoneautoNoneauto667.6114417699631autoNoneautoautoautoautoautoautoauto663.0303151999833auto665.7946605000179auto665.5274639000418autoNoneauto0.08162467057045163auto666.0281419999665autoNoneauto666.0281419999665autoNoneauto666.9614886000054autoNoneauto666.9614886000054autoNoneautorightauto0.4396433000219986auto666.9614886000054autoNoneauto667.4697198000504autoNoneauto667.4697198000504autoNoneautorightauto0.12193510006181896auto667.4697198000504autoNoneauto-10.50226798422675auto149.60171456845086autoautoAdamFullauto001auto2021_Mar_30_1355autoAB_pic_singleT2auto2020.2.10auto60.2183275764758auto
ABautolag5auto5auto3auto8auto0.06000000005000003auto0.02auto0.3automainautoautoautoautoauto0auto17auto17auto17autoautoautoautoautoautoautotent.jpgautotrampoline.jpgautolicenseplate.jpgautopunchingbag.jpgautomrpotatohead.jpgautolighthouse.jpgautobasketball01.jpgautoskateboard.jpgautoflag.jpgautosnowshovel.jpgautobacon.jpgautozipper.jpgautogolfball.jpgautoduck01.jpgautocigar.jpgautoapron.jpgautobow.jpgautoautoautoautoauto1auto1auto10autoautoautoautoauto.\resources\skateboard.jpgautoautoauto1autoautoautoautoautoautoautoautoautoautoauto1autoautoautoautoautoautoauto672.9932664700085autoNoneautoNoneauto672.9932664700085autoNoneautoautoautoautoautoautoauto667.620813400019auto670.3759182000067auto670.1094019999728autoNoneauto0.07946808884938937auto670.6103333999636autoNoneauto670.6103333999636autoNoneauto671.7127541999798autoNoneauto671.7127541999798autoNoneautoleftauto1.0521392000373453auto671.7127541999798autoNoneauto672.8300902000628autoNoneauto672.8300902000628autoNoneautoleftauto0.14646540000103414auto672.8300902000628autoNoneauto-10.24145036583883auto149.57135671431618autoautoAdamFullauto001auto2021_Mar_30_1355autoAB_pic_singleT2auto2020.2.10auto60.2183275764758auto
ABautolag3auto3auto4auto7auto0.06000000005000003auto0.02auto0.3automainautoautoautoautoauto0auto18auto18auto18autoautoautoautoautoautoautoelectricguitar01.jpgautoicecube02.jpgautocross01.jpgautotoyanimal05.jpgautoseal.jpgautocactus.jpgautobull.jpgautogrizzly.jpgautoboat.jpgautoanchor.jpgautocat.jpgautosquid.jpgautoredfox.jpgautototempole.jpgautocoffeemaker.jpgautolizard.jpgautoleafrake.jpgautoautoautoautoauto1auto0auto9autoautoautoautoauto.\resources\bull.jpgautoautoauto1autoautoautoautoautoautoautoautoautoautoauto1autoautoautoautoautoautoauto678.3414596699644autoNoneautoNoneauto678.3414596699644autoNoneautoautoautoautoautoautoauto673.0005345999962auto675.7581298999721auto675.4927429000381autoNoneauto0.07774045099535942auto676.0088819999946autoNoneauto676.0088819999946autoNoneauto676.9931984000141autoNoneauto676.9931984000141autoNoneautoleftauto0.9317827000049874auto676.9931984000141autoNoneauto677.9816295000492autoNoneauto677.9816295000492autoNoneautorightauto0.3407169000711292auto677.9816295000492autoNoneauto-10.006986377775949auto149.5416075490987autoautoAdamFullauto001auto2021_Mar_30_1355autoAB_pic_singleT2auto2020.2.10auto60.2183275764758auto
ABautolag2auto2auto5auto7auto0.06000000005000003auto0.02auto0.3automainautoautoautoautoauto0auto19auto19auto19autoautoautoautoautoautoautoplatypus.jpgautoporcupine.jpgautobutterfly.jpgautodoghouse.jpgautokangaroo.jpgautosteeringwheel.jpgautoeye.jpgautotennisracket.jpgautosaltshaker03a.jpgautochefshat.jpgautobathtub.jpgautoladder.jpgautomailbox02.jpgautodiscoball.jpgautorose.jpgautolighthouse.jpgautotoucan.jpgautoautoautoautoauto1auto1auto9autoautoautoautoauto.\resources\eye.jpgautoautoauto1autoautoautoautoautoautoautoautoautoautoauto1autoautoautoautoautoautoauto683.5902714699972autoNoneautoNoneauto683.5902714699972autoNoneautoautoautoautoautoautoauto678.3424726000521auto681.1064919000491auto680.8406125999754autoNoneauto0.07618803171655826auto681.3562717000023autoNoneauto681.3562717000023autoNoneauto682.3258448999841autoNoneauto682.3258448999841autoNoneautoleftauto0.7630369999678805auto682.3258448999841autoNoneauto683.1472611000063autoNoneauto683.1472611000063autoNoneautoleftauto0.42701430001761764auto683.1472611000063autoNoneauto-9.786960695200268auto149.51282764496605autoautoAdamFullauto001auto2021_Mar_30_1355autoAB_pic_singleT2auto2020.2.10auto60.2183275764758auto
ABautolag4auto4auto3auto7auto0.06000000005000003auto0.02auto0.3automainautoautoautoautoauto0auto20auto20auto20autoautoautoautoautoautoautospear02.jpgautobirdhouse.jpgautoexitsign.jpgautocross01.jpgautocannon.jpgautoostrich.jpgautowitchhat.jpgautocrosscountryski.jpgautohammerheadshark.jpgautoworldmap.jpgautobull.jpgautoscooter.jpgautosaxophone.jpgautotoilet.jpgautosmokingpipe.jpgautomoon.jpgautoanchor.jpgautoautoautoautoauto0auto1auto9autoautoautoautoauto.\resources\witchhat.jpgautoautoauto1autoautoautoautoautoautoautoautoautoautoauto1autoautoautoautoautoautoauto688.8720863699913autoNoneautoNoneauto688.8720863699913autoNoneautoautoautoautoautoautoauto683.5917849000543auto686.3549403999932auto686.0890059999656autoNoneauto0.07473107981645714auto686.5880426999647autoNoneauto686.5880426999647autoNoneauto687.5399321999867autoNoneauto687.5399321999867autoNoneautorightauto1.0079744000686333auto687.5399321999867autoNoneauto688.612721499987autoNoneauto688.612721499987autoNoneautoleftauto0.2404368999414146auto688.612721499987autoNoneauto-9.576444591464016auto149.48495303451233autoautoAdamFullauto001auto2021_Mar_30_1355autoAB_pic_singleT2auto2020.2.10auto60.2183275764758auto
ABautolag7auto7auto5auto12auto0.06000000005000003auto0.02auto0.3automainautoautoautoautoauto0auto21auto21auto21autoautoautoautoautoautoautomicrophone01.jpgautoboxingglove01.jpgautomattress.jpgautocandycane01a.jpgautohelicopter.jpgautopirateflag.jpgautodrumstick.jpgautoexitsign.jpgautobull.jpgautopig.jpgautodolphin01.jpgautoelectricguitar01.jpgautostubbywrench01a.jpgautolocker.jpgautoant.jpgautobeaver.jpgautoslug.jpgautoautoautoautoauto0auto0auto14autoautoautoautoauto.\resources\electricguitar01.jpgautoautoauto1autoautoautoautoautoautoautoautoautoautoauto1autoautoautoautoautoautoauto694.0864553700434autoNoneautoNoneauto694.0864553700434autoNoneautoautoautoautoautoautoauto688.8758546999888auto691.6369878000114auto691.370533999987autoNoneauto0.07333673878235011auto691.870213599992autoNoneauto691.870213599992autoNoneauto693.2957675000653autoNoneauto693.2957675000653autoNoneautorightauto0.5078058999497443auto693.2957675000653autoNoneauto693.8604568999726autoNoneauto693.8604568999726autoNoneautorightauto0.2062830999493599auto693.8604568999726autoNoneauto-9.372768207132005auto149.4578365926671autoautoAdamFullauto001auto2021_Mar_30_1355autoAB_pic_singleT2auto2020.2.10auto60.2183275764758auto
ABautolag6auto6auto5auto11auto0.06000000005000003auto0.02auto0.3automainautoautoautoautoauto0auto22auto22auto22autoautoautoautoautoautoautogranolabar01.jpgautosurfboard.jpgautosoccerball.jpgautourinal.jpgautozebra.jpgautohelicopter.jpgautoafricanelephant.jpgautoshovel01.jpgautoear.jpgautoladder.jpgautocandycane01a.jpgautohammerheadshark.jpgautofootballhelmet.jpgautobull.jpgautostubbywrench01a.jpgautogreatwhiteshark.jpgautocheetah.jpgautoautoautoautoauto0auto1auto13autoautoautoautoauto.\resources\candycane01a.jpgautoautoauto1autoautoautoautoautoautoautoautoautoautoauto1autoautoautoautoautoautoauto699.2854965700302autoNoneautoNoneauto699.2854965700302autoNoneautoautoautoautoautoautoauto694.0875962000573auto696.8517359000398auto696.5854785999982autoNoneauto0.0719872762347998auto697.0852815000108autoNoneauto697.0852815000108autoNoneauto698.3857369000325autoNoneauto698.3857369000325autoNoneautorightauto0.6018322000745684auto698.3857369000325autoNoneauto699.0598741000285autoNoneauto699.0598741000285autoNoneautoleftauto0.20002760004717857auto699.0598741000285autoNoneauto-9.174228179228214auto149.43132901424258autoautoAdamFullauto001auto2021_Mar_30_1355autoAB_pic_singleT2auto2020.2.10auto60.2183275764758auto
ABautolag7auto7auto5auto12auto0.06000000005000003auto0.02auto0.3automainautoautoautoautoauto0auto23auto23auto23autoautoautoautoautoautoautowell.jpgautobridge.jpgautoanchor.jpgautoeye.jpgautoexitsign.jpgautomarble.jpgautofridge.jpgautotortoise01.jpgautoladybug03.jpgautopig.jpgautohandcuffs.jpgautosnowshoe.jpgautoseagull.jpgautopingpongtable.jpgautopopcorn.jpgautonosmokingsign.jpgautobrownsugar.jpgautoautoautoautoauto1auto1auto14autoautoautoautoauto.\resources\snowshoe.jpgautoautoauto1autoautoautoautoautoautoautoautoautoautoauto1autoautoautoautoautoautoauto705.8170249700546autoNoneautoNoneauto705.8170249700546autoNoneautoautoautoautoautoautoauto699.288143599988auto702.050419999985auto701.784044799977autoNoneauto0.07067140880036984auto702.2837444000179autoNoneauto702.2837444000179autoNoneauto703.6519188999664autoNoneauto703.6519188999664autoNoneautoleftauto1.4975282000377774auto703.6519188999664autoNoneauto705.2199654000578autoNoneauto705.2199654000578autoNoneautoleftauto0.5736154000042006auto705.2199654000578autoNoneauto-8.979655988427094auto149.40529787671298autoautoAdamFullauto001auto2021_Mar_30_1355autoAB_pic_singleT2auto2020.2.10auto60.2183275764758auto
ABautolag5auto5auto3auto8auto0.06000000005000003auto0.02auto0.3automainautoautoautoautoauto0auto24auto24auto24autoautoautoautoautoautoautohammerheadshark.jpgautotire.jpgautocrab01.jpgautowheelbarrow01.jpgautorubikcube.jpgautohand01b.jpgautofrenchfries.jpgautosnowman.jpgautopeacock.jpgautoarrow02.jpgautoskippingrope.jpgautobowtie.jpgautoladybug03.jpgautoelectrictoothbrush01c.jpgautosteeringwheel.jpgautolily.jpgautoworldmap.jpgautoautoautoautoauto0auto0auto10autoautoautoautoauto.\resources\snowman.jpgautoautoauto1autoautoautoautoautoautoautoautoautoautoauto1autoautoautoautoautoautoauto710.4988814700395autoNoneautoNoneauto710.4988814700395autoNoneautoautoautoautoautoautoauto705.8253891000059auto708.5819148999872auto708.3154434000608autoNoneauto0.06938141081249215auto708.8156773999799autoNoneauto708.8156773999799autoNoneauto709.8198156000581autoNoneauto709.8198156000581autoNoneautorightauto0.41305880004074425auto709.8198156000581autoNoneauto710.2933246999746autoNoneauto710.2933246999746autoNoneautorightauto0.17406839993782341auto710.2933246999746autoNoneauto-8.788229244788711auto149.3796312407366autoautoAdamFullauto001auto2021_Mar_30_1355autoAB_pic_singleT2auto2020.2.10auto60.2183275764758auto
ABautolag3auto3auto3auto6auto0.06000000005000003auto0.02auto0.3automainautoautoautoautoauto0auto25auto25auto25autoautoautoautoautoautoautovolleyball.jpgautotoolbox02.jpgautoworldmap.jpgautofrisbee.jpgautochurch.jpgautodolphin01.jpgautoredfox.jpgautotoucan.jpgautosheep.jpgautoacorn.jpgautoparkfountain.jpgautofishingrod.jpgautopumpkin.jpgautoostrich.jpgautohand01b.jpgautohoneybee.jpgautoslug.jpgautoautoautoautoauto1auto0auto8autoautoautoautoauto.\resources\dolphin01.jpgautoautoauto1autoautoautoautoautoautoautoautoautoautoauto1autoautoautoautoautoautoauto715.3159046700224autoNoneautoNoneauto715.3159046700224autoNoneautoautoautoautoautoautoauto710.5009926999919auto713.2642328999937auto712.9973476000596autoNoneauto0.06811185381433689auto713.4977681000018autoNoneauto713.4977681000018autoNoneauto714.2976807999657autoNoneauto714.2976807999657autoNoneautoleftauto0.7128587999613956auto714.2976807999657autoNoneauto715.0759034999646autoNoneauto715.0759034999646autoNoneautorightauto0.2085493999766186auto715.0759034999646autoNoneauto-8.599367950723693auto149.35423706085444autoautoAdamFullauto001auto2021_Mar_30_1355autoAB_pic_singleT2auto2020.2.10auto60.2183275764758auto
ABautolag2auto2auto3auto5auto0.06000000005000003auto0.02auto0.3automainautoautoautoautoauto0auto26auto26auto26autoautoautoautoautoautoautoeye.jpgautocow.jpgautocandycane01a.jpgautoswordfish.jpgautojeep.jpgautohockeystick.jpgautotoyanimal05.jpgautoplatypus.jpgautorollerblade.jpgautomoon.jpgautobowlingpin.jpgautoairhockeytable.jpgautomusicsheet.jpgautotulip02.jpgautolawnmower.jpgautohoneybee.jpgautocrown.jpgautoautoautoautoauto1auto1auto7autoautoautoautoauto.\resources\jeep.jpgautoautoauto1autoautoautoautoautoautoautoautoautoautoauto1autoautoautoautoautoautoauto720.112822069996autoNoneautoNoneauto720.112822069996autoNoneautoautoautoautoautoautoauto715.3163035999751auto718.0789427000564auto717.8128333999775autoNoneauto0.06685891547740237auto718.3126889000414autoNoneauto718.3126889000414autoNoneauto719.0133527000435autoNoneauto719.0133527000435autoNoneautoleftauto0.8118445000145584auto719.0133527000435autoNoneauto719.8908531999914autoNoneauto719.8908531999914autoNoneautoleftauto0.2016363999573514auto719.8908531999914autoNoneauto-8.412668926886397auto149.32904141696991autoautoAdamFullauto001auto2021_Mar_30_1355autoAB_pic_singleT2auto2020.2.10auto60.2183275764758auto
ABautolag1auto1auto5auto6auto0.06000000005000003auto0.02auto0.3automainautoautoautoautoauto0auto27auto27auto27autoautoautoautoautoautoautofoot.jpgautocat.jpgautocruiseship.jpgautocar.jpgautoshovel01.jpgautotarantula.jpgautolip.jpgautowaterfountain02.jpgautobull.jpgautotree.jpgautosquid.jpgautonunchuk.jpgautodonut.jpgautobutterfly.jpgautogrizzly.jpgautoeiffeltower.jpgautobasketball01.jpgautoautoautoautoauto0auto0auto8autoautoautoautoauto.\resources\tarantula.jpgautoautoauto1autoautoautoautoautoautoautoautoautoautoauto1autoautoautoautoautoautoauto724.7276816699654autoNoneautoNoneauto724.7276816699654autoNoneautoautoautoautoautoautoauto720.1131405000342auto722.8786644999636auto722.6114099000115autoNoneauto0.06561994368292197auto723.1124016999966autoNoneauto723.1124016999966autoNoneauto723.8947329999646autoNoneauto723.8947329999646autoNoneautorightauto0.5645390000427142auto723.8947329999646autoNoneauto724.5176293000113autoNoneauto724.5176293000113autoNoneautorightauto0.1858316999860108auto724.5176293000113autoNoneauto-8.22786124710536auto149.3039864933649autoautoAdamFullauto001auto2021_Mar_30_1355autoAB_pic_singleT2auto2020.2.10auto60.2183275764758auto
ABautolag4auto4auto5auto9auto0.06000000005000003auto0.02auto0.3automainautoautoautoautoauto0auto28auto28auto28autoautoautoautoautoautoautofunnel.jpgautocheetah.jpgautokite.jpgautodromedary.jpgautofoldingchair.jpgautohockeystick.jpgautobutterfly.jpgautogiraffe.jpgautoparkfountain.jpgautoarrow02.jpgautobluejay.jpgautosafe.jpgautofoot.jpgautohorse.jpgautomusicsheet.jpgautoswordfish.jpgautomummy.jpgautoautoautoautoauto0auto0auto11autoautoautoautoauto.\resources\parkfountain.jpgautoautoauto1autoautoautoautoautoautoautoautoautoautoauto1autoautoautoautoautoautoauto729.4766763699939autoNoneautoNoneauto729.4766763699939autoNoneautoautoautoautoautoautoauto724.7304990000557auto727.4931885000551auto727.2263196000131autoNoneauto0.06439316078578053auto727.7270688000135autoNoneauto727.7270688000135autoNoneauto728.7436382999877autoNoneauto728.7436382999877autoNoneautorightauto0.4707020000787452auto728.7436382999877autoNoneauto729.2831364000449autoNoneauto729.2831364000449autoNoneautorightauto0.16215320001356304auto729.2831364000449autoNoneauto-8.044774901977698auto149.27902863321566autoautoAdamFullauto001auto2021_Mar_30_1355autoAB_pic_singleT2auto2020.2.10auto60.2183275764758auto
ABautolag3auto3auto4auto7auto0.06000000005000003auto0.02auto0.3automainautoautoautoautoauto0auto29auto29auto29autoautoautoautoautoautoautotrumpet.jpgautochimney.jpgautoseal.jpgautosaxophone.jpgautocashregister01.jpgautosausage.jpgautohotdogweiner.jpgautotire.jpgautolion.jpgautodrumset.jpgautostatue.jpgautosmokingpipe.jpgautorollerblade.jpgautobullet.jpgautobull.jpgautoducttape.jpgautoant.jpgautoautoautoautoauto0auto1auto9autoautoautoautoauto.\resources\hotdogweiner.jpgautoautoauto1autoautoautoautoautoautoautoautoautoautoauto1autoautoautoautoautoautoauto734.2587258700281autoNoneautoNoneauto734.2587258700281autoNoneautoautoautoautoautoautoauto729.4771088999696auto732.2416269000387auto731.9756687000627autoNoneauto0.06317745599932922auto732.4760491000488autoNoneauto732.4760491000488autoNoneauto733.32568670006autoNoneauto733.32568670006autoNoneautorightauto0.6704282000428066auto733.32568670006autoNoneauto734.0670115000103autoNoneauto734.0670115000103autoNoneautoleftauto0.17488910001702607auto734.0670115000103autoNoneauto-7.8633185173691auto149.25413659331215autoautoAdamFullauto001auto2021_Mar_30_1355autoAB_pic_singleT2auto2020.2.10auto60.2183275764758auto
ABautolag1auto1auto4auto5auto0.06000000005000003auto0.02auto0.3automainautoautoautoautoauto0auto30auto30auto30autoautoautoautoautoautoautoanchor.jpgautohammerheadshark.jpgautobed.jpgautoporcupine.jpgautozipper.jpgautopigeon.jpgautofortunecookie.jpgautocurtain.jpgautomicrowave.jpgautorose.jpgautoslug.jpgautofrenchfries.jpgautochefshat.jpgautotrophy01.jpgautosnowshovel.jpgautoaccordion01.jpgautokite.jpgautoautoautoautoauto0auto0auto7autoautoautoautoauto.\resources\zipper.jpgautoautoauto1autoautoautoautoautoautoautoautoautoautoauto1autoautoautoautoautoautoauto738.6905328699853autoNoneautoNoneauto738.6905328699853autoNoneautoautoautoautoautoautoauto734.2602542999666auto737.0235293000005auto736.756785399979autoNoneauto0.061972238020393006auto737.2577083000215autoNoneauto737.2577083000215autoNoneauto737.9245186999906autoNoneauto737.9245186999906autoNoneautorightauto0.5324163000332192auto737.9245186999906autoNoneauto738.5164247000357autoNoneauto738.5164247000357autoNoneautorightauto0.15588130010291934auto738.5164247000357autoNoneauto-7.683463593299149auto149.22929004261385autoautoAdamFullauto001auto2021_Mar_30_1355autoAB_pic_singleT2auto2020.2.10auto60.2183275764758auto
ABautolag4auto4auto5auto9auto0.06000000005000003auto0.02auto0.3automainautoautoautoautoauto0auto31auto31auto31autoautoautoautoautoautoautosnowshoe.jpgautolawnmower.jpgautotrumpet.jpgautohulahoop.jpgautobull.jpgautokite.jpgautogreathornowl.jpgautocloud.jpgautodrumset.jpgautogreatwhiteshark.jpgautoacorn.jpgautotortoise01.jpgautobasketball01.jpgautoflag.jpgautomrpotatohead.jpgautostool01.jpgautoparkfountain.jpgautoautoautoautoauto0auto0auto11autoautoautoautoauto.\resources\drumset.jpgautoautoauto1autoautoautoautoautoautoautoautoautoautoauto1autoautoautoautoautoautoauto743.3390117700677autoNoneautoNoneauto743.3390117700677autoNoneautoautoautoautoautoautoauto738.6899638000177auto741.4555419000098auto741.1902173999697autoNoneauto0.06077733099064589auto741.6894230999751autoNoneauto741.6894230999751autoNoneauto742.6727632000111autoNoneauto742.6727632000111autoNoneautorightauto0.4255907000042498auto742.6727632000111autoNoneauto743.1658517000033autoNoneauto743.1658517000033autoNoneautorightauto0.15746100002434105auto743.1658517000033autoNoneauto-7.50523356632791auto149.20447831138293autoautoAdamFullauto001auto2021_Mar_30_1355autoAB_pic_singleT2auto2020.2.10auto60.2183275764758auto
ABautolag6auto6auto3auto9auto0.06000000005000003auto0.02auto0.3automainautoautoautoautoauto0auto32auto32auto32autoautoautoautoautoautoautofirehydrant.jpgautoslug.jpgautofunnel.jpgautotoolbox02.jpgautomagneticcompass.jpgautodrumstick.jpgautoicecube02.jpgautomummy.jpgautopumpkin.jpgautocallbell.jpgautospiderweb.jpgautosafe.jpgautowitchhat.jpgautojeans01.jpgautoshovel01.jpgautopunchingbag.jpgautoskippingrope.jpgautoautoautoautoauto1auto1auto11autoautoautoautoauto.\resources\pumpkin.jpgautoautoauto1autoautoautoautoautoautoautoautoautoautoauto1autoautoautoautoautoautoauto748.4058089699596autoNoneautoNoneauto748.4058089699596autoNoneautoautoautoautoautoautoauto743.341432300047auto746.1045828000642auto745.8377365000779autoNoneauto0.0595929024924546auto746.3389494000003autoNoneauto746.3389494000003autoNoneauto747.3058366000187autoNoneauto747.3058366000187autoNoneautoleftauto0.8323134999955073auto747.3058366000187autoNoneauto748.2049589999951autoNoneauto748.2049589999951autoNoneautoleftauto0.17386009998153895auto748.2049589999951autoNoneauto-7.328696463350686auto149.17969937915autoautoAdamFullauto001auto2021_Mar_30_1355autoAB_pic_singleT2auto2020.2.10auto60.2183275764758auto
ABautolag2auto2auto3auto5auto0.06000000005000003auto0.02auto0.3automainautoautoautoautoauto0auto33auto33auto33autoautoautoautoautoautoautotulip02.jpgautodandelion.jpgautorubikcube.jpgautorecyclingbin.jpgautogolfball.jpgautoflag.jpgautowheelchair.jpgautochristmaslights.jpgautodolphin01.jpgautoacorn.jpgautonoparkingsign.jpgautonunchuk.jpgautogreatwhiteshark.jpgautoacousticguitar02.jpgautoelbow.jpgautostatue.jpgautowaterfall.jpgautoautoautoautoauto1auto0auto7autoautoautoautoauto.\resources\golfball.jpgautoautoauto1autoautoautoautoautoautoautoautoautoautoauto1autoautoautoautoautoautoauto752.9526758700143autoNoneautoNoneauto752.9526758700143autoNoneautoautoautoautoautoautoauto748.4068849000614auto751.1705322000198auto750.9037775000324autoNoneauto0.058419415381183025auto751.4036209000042autoNoneauto751.4036209000042autoNoneauto752.0370782000246autoNoneauto752.0370782000246autoNoneautoleftauto0.6565094999969006auto752.0370782000246autoNoneauto752.7676687000785autoNoneauto752.7676687000785autoNoneautorightauto0.16365080000832677auto752.7676687000785autoNoneauto-7.153960188710109auto149.1549590795779autoautoAdamFullauto001auto2021_Mar_30_1355autoAB_pic_singleT2auto2020.2.10auto60.2183275764758auto
ABautolag5auto5auto4auto9auto0.06000000005000003auto0.02auto0.3automainautoautoautoautoauto0auto34auto34auto34autoautoautoautoautoautoautoacousticguitar02.jpgautodartboard.jpgautofootball.jpgautohotdogweiner.jpgautoseal.jpgautolion.jpgautosnowman.jpgautowaterfall.jpgautocorn02.jpgautoeye.jpgautofishskeleton.jpgautourinal.jpgautotent.jpgautobadmintonracket.jpgautohorseshoe.jpgautodreamcatcher.jpgautotarantula.jpgautoautoautoautoauto0auto0auto11autoautoautoautoauto.\resources\corn02.jpgautoautoauto1autoautoautoautoautoautoautoautoautoautoauto1autoautoautoautoautoautoauto757.5683300699806autoNoneautoNoneauto757.5683300699806autoNoneautoautoautoautoautoautoauto752.9522819999838auto755.7013958999887auto755.4520447000396autoNoneauto0.05725759708246482auto755.9518650000682autoNoneauto755.9518650000682autoNoneauto756.8853535000235autoNoneauto756.8853535000235autoNoneautorightauto0.479014000040479auto756.8853535000235autoNoneauto757.4286030000076autoNoneauto757.4286030000076autoNoneautorightauto0.12206710001919419auto757.4286030000076autoNoneauto-6.981169653667865auto149.13027049411005autoautoAdamFullauto001auto2021_Mar_30_1355autoAB_pic_singleT2auto2020.2.10auto60.2183275764758auto
ABautolag7auto7auto5auto12auto0.06000000005000003auto0.02auto0.3automainautoautoautoautoauto0auto35auto35auto35autoautoautoautoautoautoautobasketball01.jpgautowallclock.jpgautobull.jpgautogreatwhiteshark.jpgautotortoise01.jpgautobat.jpgautoleafrake.jpgautosandcastle.jpgautolawnmower.jpgautosquirrel.jpgautomasquerademask01.jpgautorollerblade.jpgautoironingboard01.jpgautotrumpet.jpgautotricycle.jpgautotable01.jpgautopeacock.jpgautoautoautoautoauto1auto0auto14autoautoautoautoauto.\resources\rollerblade.jpgautoautoauto1autoautoautoautoautoautoautoautoautoautoauto1autoautoautoautoautoautoauto762.5005622700322autoNoneautoNoneauto762.5005622700322autoNoneautoautoautoautoautoautoauto757.5704996000277auto760.3333341999678auto760.0669668000191autoNoneauto0.05610842109428234auto760.568111200002autoNoneauto760.568111200002autoNoneauto761.7172604000662autoNoneauto761.7172604000662autoNoneautoleftauto0.490423500072211auto761.7172604000662autoNoneauto762.2788456999697autoNoneauto762.2788456999697autoNoneautorightauto0.19055110006593168auto762.2788456999697autoNoneauto-6.81050505835102auto149.10565350214995autoautoAdamFullauto001auto2021_Mar_30_1355autoAB_pic_singleT2auto2020.2.10auto60.2183275764758auto
ABautolag5auto5auto5auto10auto0.06000000005000003auto0.02auto0.3automainautoautoautoautoauto0auto36auto36auto36autoautoautoautoautoautoautoleafblower01.jpgautotent.jpgautosausage.jpgautomotorcycle.jpgautototempole.jpgautosnowshovel.jpgautofridge.jpgautoladder.jpgautofrisbee.jpgautotricycle.jpgautohorseshoe.jpgautopenguin.jpgautofortunecookie.jpgautofoosballtable.jpgautococktailshrimp02.jpgautobanjo.jpgautonosmokingsign.jpgautoautoautoautoauto1auto0auto12autoautoautoautoauto.\resources\tricycle.jpgautoautoauto1autoautoautoautoautoautoautoautoautoautoauto1autoautoautoautoautoautoauto767.2484418700682autoNoneautoNoneauto767.2484418700682autoNoneautoautoautoautoautoautoauto762.5048455999931auto765.2654709999915auto764.999763000058autoNoneauto0.054973096102977216auto765.5157159999944autoNoneauto765.5157159999944autoNoneauto766.500878800056autoNoneauto766.500878800056autoNoneautoleftauto0.4830783000215888auto766.500878800056autoNoneauto767.0598148000427autoNoneauto767.0598148000427autoNoneautorightauto0.16415920003782958auto767.0598148000427autoNoneauto-6.642180693459115auto149.08113445219416autoautoAdamFullauto001auto2021_Mar_30_1355autoAB_pic_singleT2auto2020.2.10auto60.2183275764758auto
ABautolag7auto7auto3auto10auto0.06000000005000003auto0.02auto0.3automainautoautoautoautoauto0auto37auto37auto37autoautoautoautoautoautoautogreywolf.jpgautocannon.jpgautowitchhat.jpgautosurfboard.jpgautoskippingrope.jpgautobirdfeeder.jpgautobeerbottle.jpgautoarmadillo.jpgautotoolbox02.jpgautonoparkingsign.jpgautoseal.jpgautochair.jpgautohotdogweiner.jpgautocymbal.jpgautobasketball01.jpgautomoose.jpgautosink.jpgautoautoautoautoauto1auto1auto12autoautoautoautoauto.\resources\noparkingsign.jpgautoautoauto1autoautoautoautoautoautoautoautoautoautoauto1autoautoautoautoautoautoauto772.197910370049autoNoneautoNoneauto772.197910370049autoNoneautoautoautoautoautoautoauto767.251497899997auto770.0140237000305auto769.7484014000511autoNoneauto0.05385305849784431auto770.2644327000016autoNoneauto770.2644327000016autoNoneauto771.2324451999739autoNoneauto771.2324451999739autoNoneautoleftauto0.7086116999853402auto771.2324451999739autoNoneauto772.016247499967autoNoneauto772.016247499967autoNoneautoleftauto0.16410089994315058auto772.016247499967autoNoneauto-6.47644365819442auto149.05674591546898autoautoAdamFullauto001auto2021_Mar_30_1355autoAB_pic_singleT2auto2020.2.10auto60.2183275764758auto
ABautolag4auto4auto3auto7auto0.06000000005000003auto0.02auto0.3automainautoautoautoautoauto0auto38auto38auto38autoautoautoautoautoautoautocupcake.jpgautotoad.jpgautotoolbox02.jpgautosafe.jpgautowindmill.jpgautotank.jpgautobat.jpgautogreywolf.jpgautobench01.jpgautowhiteout.jpgautobacon.jpgautoshowerhead01.jpgautopigeon.jpgautoporcupine.jpgautolip.jpgautotiger02.jpgautocruiseship.jpgautoautoautoautoauto0auto0auto9autoautoautoautoauto.\resources\bat.jpgautoautoauto1autoautoautoautoautoautoautoautoautoautoauto1autoautoautoautoautoautoauto776.5968540700618autoNoneautoNoneauto776.5968540700618autoNoneautoautoautoautoautoautoauto772.1981019000523auto774.9625583000015auto774.695957900025autoNoneauto0.052749964257057635auto775.1959750000387autoNoneauto775.1959750000387autoNoneauto775.9304303000681autoNoneauto775.9304303000681autoNoneautorightauto0.39120670000556856auto775.9304303000681autoNoneauto776.3914452000754autoNoneauto776.3914452000754autoNoneautorightauto0.18834699993021786auto776.3914452000754autoNoneauto-6.313571908351593auto149.0325264809938autoautoAdamFullauto001auto2021_Mar_30_1355autoAB_pic_singleT2auto2020.2.10auto60.2183275764758auto
ABautolag3auto3auto5auto8auto0.06000000005000003auto0.02auto0.3automainautoautoautoautoauto0auto39auto39auto39autoautoautoautoautoautoautostatue.jpgautocalendar.jpgautojellyfish.jpgautomouse.jpgautofishingrod.jpgautochurch.jpgautoostrich.jpgautosafe.jpgautofortunecookie.jpgautobull.jpgautostool01.jpgautochristmaslights.jpgautonosmokingsign.jpgautocrosscountryski.jpgautosword01.jpgautoarrow02.jpgautokneepad01c.jpgautoautoautoautoauto0auto0auto10autoautoautoautoauto.\resources\safe.jpgautoautoauto1autoautoautoautoautoautoautoautoautoautoauto1autoautoautoautoautoautoauto781.0292415700154autoNoneautoNoneauto781.0292415700154autoNoneautoautoautoautoautoautoauto776.5990494000725auto779.3617389000719auto779.0953926000511autoNoneauto0.05166567628747441auto779.5947309000185autoNoneauto779.5947309000185autoNoneauto780.3959561999654autoNoneauto780.3959561999654autoNoneautorightauto0.4016539000440389auto780.3959561999654autoNoneauto780.8766879000468autoNoneauto780.8766879000468autoNoneautorightauto0.133241800009273auto780.8766879000468autoNoneauto-6.153871074278979auto149.00852054880139autoautoAdamFullauto001auto2021_Mar_30_1355autoAB_pic_singleT2auto2020.2.10auto60.2183275764758auto
ABautolag2auto2auto4auto6auto0.06000000005000003auto0.02auto0.3automainautoautoautoautoauto0auto40auto40auto40autoautoautoautoautoautoautobathtub.jpgautoscorpion.jpgautopingpongtable.jpgautoducttape.jpgautoxylophone.jpgautohumanskeleton.jpgautocashregister01.jpgautomicrowave.jpgautobirdhouse.jpgautorubikcube.jpgautodonut.jpgautogrizzly.jpgautofloorlamp.jpgautogolfball.jpgautodormer.jpgautosnowshoe.jpgautoparachute.jpgautoautoautoautoauto0auto1auto8autoautoautoautoauto.\resources\humanskeleton.jpgautoautoauto1autoautoautoautoautoautoautoautoautoautoauto1autoautoautoautoautoautoauto786.5762829700019autoNoneautoNoneauto786.5762829700019autoNoneautoautoautoautoautoautoauto781.030023099971auto783.7937766000396auto783.526680400013autoNoneauto0.0506022434665366auto784.026426800061autoNoneauto784.026426800061autoNoneauto784.6766535000643autoNoneauto784.6766535000643autoNoneautorightauto1.6653263000771403auto784.6766535000643autoNoneauto786.4045416000299autoNoneauto786.4045416000299autoNoneautoleftauto0.15139620006084442auto786.4045416000299autoNoneauto-5.997669546866474auto148.9847780769229autoautoAdamFullauto001auto2021_Mar_30_1355autoAB_pic_singleT2auto2020.2.10auto60.2183275764758auto
ABautolag1auto1auto4auto5auto0.06000000005000003auto0.02auto0.3automainautoautoautoautoauto0auto41auto41auto41autoautoautoautoautoautoautocloud.jpgautostool01.jpgautocrown.jpgautonosmokingsign.jpgautodonut.jpgautorose.jpgautochair.jpgautoelectrictoothbrush01c.jpgautoarrow02.jpgautocashregister01.jpgautoironingboard01.jpgautococktailshrimp02.jpgautofortunecookie.jpgautocow.jpgautodrumstick.jpgautowaterfall.jpgautochefshat.jpgautoautoautoautoauto1auto1auto7autoautoautoautoauto.\resources\donut.jpgautoautoauto1autoautoautoautoautoautoautoautoautoautoauto1autoautoautoautoautoautoauto791.1754034700338autoNoneautoNoneauto791.1754034700338autoNoneautoautoautoautoautoautoauto786.5757623000536auto789.3251382000744auto789.0756644000066autoNoneauto0.04956186801965716auto789.5755117000081autoNoneauto789.5755117000081autoNoneauto790.1430257000029autoNoneauto790.1430257000029autoNoneautoleftauto0.7936316999839619auto790.1430257000029autoNoneauto791.0063891999889autoNoneauto791.0063891999889autoNoneautoleftauto0.14765910001005977auto791.0063891999889autoNoneauto-5.845311447208259auto148.96135423849725autoautoAdamFullauto001auto2021_Mar_30_1355autoAB_pic_singleT2auto2020.2.10auto60.2183275764758auto
ABautolag6auto6auto5auto11auto0.06000000005000003auto0.02auto0.3automainautoautoautoautoauto0auto42auto42auto42autoautoautoautoautoautoautoducttape.jpgautoear.jpgautomarble.jpgautopaperairplane.jpgautosink.jpgautogiraffe.jpgautocow.jpgautosausage.jpgautodromedary.jpgautoanchor.jpgautotoad.jpgautojackrabbit.jpgautotreadmill.jpgautobrownsugar.jpgautotoucan.jpgautoredfox.jpgautorose.jpgautoautoautoautoauto1auto0auto13autoautoautoautoauto.\resources\toad.jpgautoautoauto1autoautoautoautoautoautoautoautoautoautoauto1autoautoautoautoautoautoauto795.9068567700218autoNoneautoNoneauto795.9068567700218autoNoneautoautoautoautoautoautoauto791.1768033000408auto793.9403879999882auto793.6737499000737autoNoneauto0.048546858648652304auto794.1740171000129autoNoneauto794.1740171000129autoNoneauto795.1406010000501autoNoneauto795.1406010000501autoNoneautoleftauto0.515048100030981auto795.1406010000501autoNoneauto795.7261153999716autoNoneauto795.7261153999716autoNoneautorightauto0.15584799996577203auto795.7261153999716autoNoneauto-5.697147294655324auto148.93830894912767autoautoAdamFullauto001auto2021_Mar_30_1355autoAB_pic_singleT2auto2020.2.10auto60.2183275764758auto
ABautolag5auto5auto5auto10auto0.06000000005000003auto0.02auto0.3automainautoautoautoautoauto0auto43auto43auto43autoautoautoautoautoautoautoskateboard.jpgautofrenchfries.jpgautoarmadillo.jpgautotulip02.jpgautoparachute.jpgautocork02.jpgautotricycle.jpgautokey07.jpgautorose.jpgautolily.jpgautolighthouse.jpgautoholdfast.jpgautodaddylonglegs.jpgautocobra.jpgautoairhockeytable.jpgautofoot.jpgautochair.jpgautoautoautoautoauto0auto0auto12autoautoautoautoauto.\resources\lily.jpgautoautoauto1autoautoautoautoautoautoautoautoautoautoauto1autoautoautoautoautoautoauto801.2551300700055autoNoneautoNoneauto801.2551300700055autoNoneautoautoautoautoautoautoauto795.9097753000678auto798.6725984000368auto798.4065218999749autoNoneauto0.04755956815781144auto798.906170399976autoNoneauto798.906170399976autoNoneauto799.7903747999808autoNoneauto799.7903747999808autoNoneautorightauto0.6306881000055auto799.7903747999808autoNoneauto800.487595600076autoNoneauto800.487595600076autoNoneautorightauto0.7399236001074314auto800.487595600076autoNoneauto-5.553522477858594auto148.91570623253733autoautoAdamFullauto001auto2021_Mar_30_1355autoAB_pic_singleT2auto2020.2.10auto60.2183275764758auto
ABautolag7auto7auto5auto12auto0.06000000005000003auto0.02auto0.3automainautoautoautoautoauto0auto44auto44auto44autoautoautoautoautoautoautocurtain.jpgautobirdnest.jpgautoladder.jpgautojackrabbit.jpgautobrownsugar.jpgautowindshieldwiper02.jpgautocow.jpgautokey07.jpgautopanda.jpgautomasquerademask01.jpgautoswordfish.jpgautolizard.jpgautorollerblade.jpgautochainsaw.jpgautobacon.jpgautorecyclingbin.jpgautolily.jpgautoautoautoautoauto0auto0auto14autoautoautoautoauto.\resources\lizard.jpgautoautoauto1autoautoautoautoautoautoautoautoautoautoauto1autoautoautoautoautoautoauto806.037827169965autoNoneautoNoneauto806.037827169965autoNoneautoautoautoautoautoautoauto801.2551281000488auto804.0048337000189auto803.7542518000118autoNoneauto0.046602316267041075auto804.2543033000547autoNoneauto804.2543033000547autoNoneauto805.2709886999801autoNoneauto805.2709886999801autoNoneautorightauto0.42951709998305887auto805.2709886999801autoNoneauto805.7785892999964autoNoneauto805.7785892999964autoNoneautorightauto0.23260889993980527auto805.7785892999964autoNoneauto-5.414763998996165auto148.8936134053995autoautoAdamFullauto001auto2021_Mar_30_1355autoAB_pic_singleT2auto2020.2.10auto60.2183275764758auto
ABautolag3auto3auto4auto7auto0.06000000005000003auto0.02auto0.3automainautoautoautoautoauto0auto45auto45auto45autoautoautoautoautoautoautotoyanimal05.jpgautocow.jpgautoathleticsock.jpgautoelectrictoothbrush01c.jpgautocrown.jpgautofrenchfries.jpgautofridge.jpgautotrophy01.jpgautojeans01.jpgautobluejay.jpgautochefshat.jpgautostatue.jpgautosquirrel.jpgautotiger02.jpgautoparkfountain.jpgautodromedary.jpgautobed.jpgautoautoautoautoauto0auto0auto9autoautoautoautoauto.\resources\fridge.jpgautoautoauto1autoautoautoautoautoautoautoautoautoautoauto1autoautoautoautoautoautoauto810.5026099700248autoNoneautoNoneauto810.5026099700248autoNoneautoautoautoautoautoautoauto806.0386363000143auto808.8025797000155auto808.5367889000336autoNoneauto0.04567730075566439auto809.0367035999661autoNoneauto809.0367035999661autoNoneauto809.7043097000569autoNoneauto809.7043097000569autoNoneautorightauto0.5202799999387935auto809.7043097000569autoNoneauto810.3094347000588autoNoneauto810.3094347000588autoNoneautorightauto0.16820149996783584auto810.3094347000588autoNoneauto-5.281166354747617auto148.87210008000588autoautoAdamFullauto001auto2021_Mar_30_1355autoAB_pic_singleT2auto2020.2.10auto60.2183275764758auto
ABautolag2auto2auto5auto7auto0.06000000005000003auto0.02auto0.3automainautoautoautoautoauto0auto46auto46auto46autoautoautoautoautoautoautosandcastle.jpgautopopcorn.jpgautotennisracket.jpgautofootball.jpgautowhiteout.jpgautosmokingpipe.jpgautocupcake.jpgautocandycane01a.jpgautoeiffeltower.jpgautoairhockeytable.jpgautopokerchips.jpgautomakiroll.jpgautostatue.jpgautoturnstile.jpgautogreywolf.jpgautojeep.jpgautogreatwhiteshark.jpgautoautoautoautoauto0auto1auto9autoautoautoautoauto.\resources\cupcake.jpgautoautoauto1autoautoautoautoautoautoautoautoautoautoauto1autoautoautoautoautoautoauto815.2848776699742autoNoneautoNoneauto815.2848776699742autoNoneautoautoautoautoautoautoauto810.5035235000541auto813.2520051000174auto813.0020073000342autoNoneauto0.04478650272471688auto813.5021613000426autoNoneauto813.5021613000426autoNoneauto814.1689387999941autoNoneauto814.1689387999941autoNoneautorightauto0.8395400999579579auto814.1689387999941autoNoneauto815.0858757999958autoNoneauto815.0858757999958autoNoneautoleftauto0.17241679993458092auto815.0858757999958autoNoneauto-5.1529777585639716auto148.85123700502416autoautoAdamFullauto001auto2021_Mar_30_1355autoAB_pic_singleT2auto2020.2.10auto60.2183275764758auto
ABautolag6auto6auto5auto11auto0.06000000005000003auto0.02auto0.3automainautoautoautoautoauto0auto47auto47auto47autoautoautoautoautoautoautoathleticsock.jpgautojellyfish.jpgautoairhockeytable.jpgautococktailshrimp02.jpgautodromedary.jpgautotire.jpgautopumpkin.jpgautoparrot01.jpgautoexitsign.jpgautochefshat.jpgautotent.jpgautoduck01.jpgautochainsaw.jpgautopokerchips.jpgautocashregister01.jpgautoharmonica.jpgautolily.jpgautoautoautoautoauto0auto0auto13autoautoautoautoauto.\resources\tent.jpgautoautoauto1autoautoautoautoautoautoautoautoautoautoauto1autoautoautoautoautoautoauto820.3839660699945autoNoneautoNoneauto820.3839660699945autoNoneautoautoautoautoautoautoauto815.285625700024auto818.050349200028auto817.7839440000243autoNoneauto0.043931594061681484auto818.2840082000475autoNoneauto818.2840082000475autoNoneauto819.1840494000353autoNoneauto819.1840494000353autoNoneautorightauto0.8463601999683306auto819.1840494000353autoNoneauto820.1102606999921autoNoneauto820.1102606999921autoNoneautorightauto0.25246720004361123auto820.1102606999921autoNoneauto-5.030388100196904auto148.83109478744248autoautoAdamFullauto001auto2021_Mar_30_1355autoAB_pic_singleT2auto2020.2.10auto60.2183275764758auto
ABautolag1auto1auto4auto5auto0.06000000005000003auto0.02auto0.3automainautoautoautoautoauto0auto48auto48auto48autoautoautoautoautoautoautolion.jpgautoelbow.jpgautofootball.jpgautopirateflag.jpgautosteeringwheel.jpgautocallbell.jpgautotriangle.jpgautohelicopter.jpgautoparkingmeter.jpgautocross01.jpgautohockeystick.jpgautobirthdaycandle.jpgautonose.jpgautopooltable.jpgautobumpercar.jpgautofloorlamp.jpgautowheelbarrow01.jpgautoautoautoautoauto1auto0auto7autoautoautoautoauto.\resources\steeringwheel.jpgautoautoauto1autoautoautoautoautoautoautoautoautoautoauto1autoautoautoautoautoautoauto825.6816849700175autoNoneautoNoneauto825.6816849700175autoNoneautoautoautoautoautoautoauto820.3863612000132auto823.1489343000576auto822.882383499993autoNoneauto0.043113856485978076auto823.3816472999752autoNoneauto823.3816472999752autoNoneauto823.8991183000617autoNoneauto823.8991183000617autoNoneautoleftauto1.3549047000706196auto823.8991183000617autoNoneauto825.3578107999638autoNoneauto825.3578107999638autoNoneautorightauto0.30860799993388355auto825.3578107999638autoNoneauto-4.913519996306299auto148.81174255924898autoautoAdamFullauto001auto2021_Mar_30_1355autoAB_pic_singleT2auto2020.2.10auto60.2183275764758auto
ABautolag4auto4auto3auto7auto0.06000000005000003auto0.02auto0.3automainautoautoautoautoauto0auto49auto49auto49autoautoautoautoautoautoautoaccordion01.jpgautohulahoop.jpgautoporcupine.jpgautostatue.jpgautotreadmill.jpgautocrab01.jpgautovolleyball.jpgautowhiteout.jpgautotelescope.jpgautoostrich.jpgautomrpotatohead.jpgautoskunk.jpgautoladder.jpgautolightswitch01.jpgautokey07.jpgautoslug.jpgautobasketball01.jpgautoautoautoautoauto0auto0auto9autoautoautoautoauto.\resources\volleyball.jpgautoautoauto1autoautoautoautoautoautoautoautoautoautoauto1autoautoautoautoautoautoauto830.1307138700271autoNoneautoNoneauto830.1307138700271autoNoneautoautoautoautoautoautoauto825.6819480999839auto828.4464303000132auto828.1807638000464autoNoneauto0.04233412128023389auto828.6803191000363autoNoneauto828.6803191000363autoNoneauto829.3143338999944autoNoneauto829.3143338999944autoNoneautorightauto0.47828979999758303auto829.3143338999944autoNoneauto829.8784919000464autoNoneauto829.8784919000464autoNoneautorightauto0.23539080005139112auto829.8784919000464autoNoneauto-4.802423975862785auto148.79324666630703autoautoAdamFullauto001auto2021_Mar_30_1355autoAB_pic_singleT2auto2020.2.10auto60.2183275764758auto
ABautolag3auto3auto4auto7auto0.06000000005000003auto0.02auto0.3automainautoautoautoautoauto0auto50auto50auto50autoautoautoautoautoautoautobutterfly.jpgautobanjo.jpgautomouse.jpgautoescalator.jpgautosmokingpipe.jpgautomoose.jpgautomusicsheet.jpgautostool01.jpgautodreamcatcher.jpgautomrpotatohead.jpgautomagneticcompass.jpgautotrampoline.jpgautouprightpiano01.jpgautogrizzly.jpgautowell.jpgautocloud.jpgautofloorlamp.jpgautoautoautoautoauto1auto0auto9autoautoautoautoauto.\resources\musicsheet.jpgautoautoauto1autoautoautoautoautoautoautoautoautoautoauto1autoautoautoautoautoautoauto835.5790387700312autoNoneautoNoneauto835.5790387700312autoNoneautoautoautoautoautoautoauto830.1299876000267auto832.8792166999774auto832.6293558999896autoNoneauto0.041592736737991076auto833.1297350999666autoNoneauto833.1297350999666autoNoneauto833.7643166000489autoNoneauto833.7643166000489autoNoneautoleftauto1.2254071000497788auto833.7643166000489autoNoneauto835.0668449000223autoNoneauto835.0668449000223autoNoneautorightauto0.48224799998570234auto835.0668449000223autoNoneauto-4.697078307019215auto148.7756694608362autoautoAdamFullauto001auto2021_Mar_30_1355autoAB_pic_singleT2auto2020.2.10auto60.2183275764758auto
ABautolag7auto7auto5auto12auto0.06000000005000003auto0.02auto0.3automainautoautoautoautoauto0auto51auto51auto51autoautoautoautoautoautoautobow.jpgautofrenchfries.jpgautoescalator.jpgautoarrow02.jpgautosword01.jpgautoelectricguitar01.jpgautostatue.jpgautotoad.jpgautocymbal.jpgautomattress.jpgautoeiffeltower.jpgautoathleticsock.jpgautocoffeemaker.jpgautosandcastle.jpgautobirdnest.jpgautodonut.jpgautoduck01.jpgautoautoautoautoauto0auto0auto14autoautoautoautoauto.\resources\athleticsock.jpgautoautoauto1autoautoautoautoautoautoautoautoautoautoauto0autoautoautoautoautoautoauto840.7941893699812autoNoneautoNoneauto840.7941893699812autoNoneautoautoautoautoautoautoauto835.5833249000134auto838.3443496000255auto838.0776026999811autoNoneauto0.04088956675634719auto838.5773916000035autoNoneauto838.5773916000035autoNoneauto839.4950043000281autoNoneauto839.4950043000281autoNoneautorightauto0.9745238999603316auto839.4950043000281autoNoneauto840.5490273999749autoNoneauto840.5490273999749autoNoneautoleftauto0.22303450002800673auto840.5490273999749autoNoneauto-4.597393322975132auto148.75906827134165autoautoAdamFullauto001auto2021_Mar_30_1355autoAB_pic_singleT2auto2020.2.10auto60.2183275764758auto
ABautolag1auto1auto5auto6auto0.06000000005000003auto0.02auto0.3automainautoautoautoautoauto0auto52auto52auto52autoautoautoautoautoautoautotrampoline.jpgautochair.jpgautosink.jpgautoporcupine.jpgautotulip02.jpgautostool01.jpgautocow.jpgautocashregister01.jpgautovulture.jpgautofoldingchair.jpgautosteeringwheel.jpgautocymbal.jpgautogreathornowl.jpgautolicenseplate.jpgautotriangle.jpgautoparrot01.jpgautobirdhouse.jpgautoautoautoautoauto0auto0auto8autoautoautoautoauto.\resources\stool01.jpgautoautoauto1autoautoautoautoautoautoautoautoautoautoauto1autoautoautoautoautoautoauto845.3425206700107autoNoneautoNoneauto845.3425206700107autoNoneautoautoautoautoautoautoauto840.795333600021auto843.5584759999765auto843.2926040000748autoNoneauto0.04022401964215433auto843.7928291000426autoNoneauto843.7928291000426autoNoneauto844.3427973999642autoNoneauto844.3427973999642autoNoneautorightauto0.72659289999865auto844.3427973999642autoNoneauto845.1456387999933autoNoneauto845.1456387999933autoNoneautorightauto0.17174689995590597auto845.1456387999933autoNoneauto-4.5032194975357775auto148.74349460580905autoautoAdamFullauto001auto2021_Mar_30_1355autoAB_pic_singleT2auto2020.2.10auto60.2183275764758auto
ABautolag4auto4auto4auto8auto0.06000000005000003auto0.02auto0.3automainautoautoautoautoauto0auto53auto53auto53autoautoautoautoautoautoautopig.jpgautohotdogweiner.jpgautodromedary.jpgautoalligator.jpgautochainsaw.jpgautodolphin01.jpgautoraccoon.jpgautomarble.jpgautolion.jpgautostool01.jpgautosurfboard.jpgautoxylophone.jpgautospear02.jpgautotoucan.jpgautoholdfast.jpgautocandycane01a.jpgautoredfox.jpgautoautoautoautoauto0auto0auto10autoautoautoautoauto.\resources\marble.jpgautoautoauto1autoautoautoautoautoautoautoautoautoautoauto1autoautoautoautoautoautoauto850.9242425700417autoNoneautoNoneauto850.9242425700417autoNoneautoautoautoautoautoautoauto845.3486085999757auto848.1076892999699auto847.8412158000283autoNoneauto0.03959510212035625auto848.3416822999716autoNoneauto848.3416822999716autoNoneauto849.0087098999647autoNoneauto849.0087098999647autoNoneautorightauto1.6004079000558704auto849.0087098999647autoNoneauto850.6808861000463autoNoneauto850.6808861000463autoNoneautorightauto0.2144167999504134auto850.6808861000463autoNoneauto-4.414358096673801auto148.72899361890146autoautoAdamFullauto001auto2021_Mar_30_1355autoAB_pic_singleT2auto2020.2.10auto60.2183275764758auto
ABautolag6auto6auto5auto11auto0.06000000005000003auto0.02auto0.3automainautoautoautoautoauto0auto54auto54auto54autoautoautoautoautoautoautobirdfeeder.jpgautourinal.jpgautofoosballtable.jpgautoskunk.jpgautoplatypus.jpgautocruiseship.jpgautobirdhouse.jpgautoseal.jpgautomoon.jpgautohelicopter.jpgautotoolbox02.jpgautobanjo.jpgautojellybean.jpgautoslug.jpgautoskateboard.jpgautocrab01.jpgautorooster.jpgautoautoautoautoauto0auto1auto13autoautoautoautoauto.\resources\toolbox02.jpgautoautoauto1autoautoautoautoautoautoautoautoautoautoauto1autoautoautoautoautoautoauto858.7387984699802autoNoneautoNoneauto858.7387984699802autoNoneautoautoautoautoautoautoauto850.9237695999909auto853.6736535000382auto853.4235279000131autoNoneauto0.03900149067543013auto853.9242613000097autoNoneauto853.9242613000097autoNoneauto854.7585001999978autoNoneauto854.7585001999978autoNoneautorightauto3.7392585000488907auto854.7585001999978autoNoneauto858.5846075000009autoNoneauto858.5846075000009autoNoneautoleftauto0.12551759998314083auto858.5846075000009autoNoneauto-4.33057306799674auto148.7156038468218autoautoAdamFullauto001auto2021_Mar_30_1355autoAB_pic_singleT2auto2020.2.10auto60.2183275764758auto
ABautolag2auto2auto4auto6auto0.06000000005000003auto0.02auto0.3automainautoautoautoautoauto0auto55auto55auto55autoautoautoautoautoautoautofunnel.jpgautocalendar.jpgautoleafrake.jpgautoelectrictoothbrush01c.jpgautoaccordion01.jpgautocorn02.jpgautototempole.jpgautobowlingpin.jpgautoladder.jpgautomattress.jpgautoarmadillo.jpgautopaperairplane.jpgautocandycane01a.jpgautobarrel01.jpgautopopcorn.jpgautoladybug03.jpgautotoyanimal05.jpgautoautoautoautoauto0auto0auto8autoautoautoautoauto.\resources\corn02.jpgautoautoauto1autoautoautoautoautoautoautoautoautoautoauto0autoautoautoautoautoautoauto863.3541278700344autoNoneautoNoneauto863.3541278700344autoNoneautoautoautoautoautoautoauto858.7391962000402auto861.504431999987auto861.2388042999664autoNoneauto0.03844161124480957auto861.754471900058autoNoneauto861.754471900058autoNoneauto862.2880470000673autoNoneauto862.2880470000673autoNoneautorightauto0.838685299968347auto862.2880470000673autoNoneauto863.2037522000028autoNoneauto863.2037522000028autoNoneautoleftauto0.11872899997979403auto863.2037522000028autoNoneauto-4.251602920953937auto148.7033571893072autoautoAdamFullauto001auto2021_Mar_30_1355autoAB_pic_singleT2auto2020.2.10auto60.2183275764758auto
ABautolag5auto5auto4auto9auto0.06000000005000003auto0.02auto0.3automainautoautoautoautoauto0auto56auto56auto56autoautoautoautoautoautoautomagneticcompass.jpgautogrizzly.jpgautolip.jpgautoleafrake.jpgautoenglishcucumber.jpgautofoldingchair.jpgautoeyepatch.jpgautobirdnest.jpgautobanjo.jpgautodromedary.jpgautoraccoon.jpgautocorn02.jpgautobasketball01.jpgautodonut.jpgautofireplace.jpgautokangaroo.jpgautospicerack.jpgautoautoautoautoauto0auto0auto11autoautoautoautoauto.\resources\banjo.jpgautoautoauto1autoautoautoautoautoautoautoautoautoautoauto1autoautoautoautoautoautoauto867.887363770022autoNoneautoNoneauto867.887363770022autoNoneautoautoautoautoautoautoauto863.3538014000515auto866.1191225000657auto865.8525940000545autoNoneauto0.03791371888730453auto866.3527609000448autoNoneauto866.3527609000448autoNoneauto867.0543327999767autoNoneauto867.0543327999767autoNoneautorightauto0.5652518999995664auto867.0543327999767autoNoneauto867.6920624000486autoNoneauto867.6920624000486autoNoneautorightauto0.17635069997049868auto867.6920624000486autoNoneauto-4.177171625045783auto148.69227910054934autoautoAdamFullauto001auto2021_Mar_30_1355autoAB_pic_singleT2auto2020.2.10auto60.2183275764758auto
ABautolag2auto2auto3auto5auto0.06000000005000003auto0.02auto0.3automainautoautoautoautoauto0auto57auto57auto57autoautoautoautoautoautoautojackrabbit.jpgautoacorn.jpgautofirehydrant.jpgautokite.jpgautogrizzly.jpgautovulture.jpgautopunchingbag.jpgautoturnstile.jpgautoplatypus.jpgautofingerprint.jpgautoparkingmeter.jpgautoseagull.jpgautocoffeemaker.jpgautotent.jpgautobowlingball.jpgautostool01.jpgautoaccordion01.jpgautoautoautoautoauto0auto0auto7autoautoautoautoauto.\resources\grizzly.jpgautoautoauto1autoautoautoautoautoautoautoautoautoautoauto1autoautoautoautoautoautoauto872.2524870700203autoNoneautoNoneauto872.2524870700203autoNoneautoautoautoautoautoautoauto867.8926591000054auto870.6516043000156auto870.4022469000192autoNoneauto0.037415970888465044auto870.9020195000339autoNoneauto870.9020195000339autoNoneauto871.3680530000711autoNoneauto871.3680530000711autoNoneautorightauto0.6616073000477627auto871.3680530000711autoNoneauto872.118708700058autoNoneauto872.118708700058autoNoneautorightauto0.11708080000244081auto872.118708700058autoNoneauto-4.106997909508454auto148.68238894126884autoautoAdamFullauto001auto2021_Mar_30_1355autoAB_pic_singleT2auto2020.2.10auto60.2183275764758auto
ABautolag6auto6auto5auto11auto0.06000000005000003auto0.02auto0.3automainautoautoautoautoauto0auto58auto58auto58autoautoautoautoautoautoautoparkfountain.jpgautotoad.jpgautocallbell.jpgautoguitarcase.jpgautobench01.jpgautotie02.jpgautoeiffeltower.jpgautonosmokingsign.jpgautoparachute.jpgautodormer.jpgautofishingrod.jpgautobull.jpgautodandelion.jpgautoleafblower01.jpgautotoolbox02.jpgautogranolabar01.jpgautoscooter.jpgautoautoautoautoauto0auto1auto13autoautoautoautoauto.\resources\fishingrod.jpgautoautoauto1autoautoautoautoautoautoautoautoautoautoauto1autoautoautoautoautoautoauto876.9253698000684autoNoneautospaceauto876.9253698000684autoNoneautoautoautoautoautoautoauto872.2574505000375auto875.0168597999727auto874.749862800003autoNoneauto0.03694648915547258auto875.2502365000546autoNoneauto875.2502365000546autoNoneauto876.0508059000131autoNoneauto876.0508059000131autoNoneautorightauto0.566060799988918auto876.0508059000131autoNoneauto876.6953038000502autoNoneauto876.6953038000502autoNoneautoleftauto0.15443170000799auto876.6953038000502autoNoneauto-4.040802692978472auto148.67370044222247auto288.0297685000114autoAdamFullauto001auto2021_Mar_30_1355autoAB_pic_singleT2auto2020.2.10auto60.2183275764758auto
ABautolag7auto7auto4auto11auto0.06000000005000003auto0.02auto0.3automainautoautoautoautoauto0auto59auto59auto59autoautoautoautoautoautoautochefshat.jpgautotulip02.jpgautofishskeleton.jpgautorollerblade.jpgautobeaver.jpgautobluecheese.jpgautojeans01.jpgautohockeypuck.jpgautodragonfly01.jpgautoskateboard.jpgautolizard.jpgautoaccordion01.jpgautospicerack.jpgautobirthdaycandle.jpgautoescalator.jpgautoparachute.jpgautosoccerball.jpgautoautoautoautoauto0auto1auto13autoautoautoautoauto.\resources\lizard.jpgautoautoauto1autoautoautoautoautoautoautoautoautoautoauto1autoautoautoautoautoautoauto1170.8307593699778autoNoneautoNoneauto1170.8307593699778autoNoneautoautoautoautoautoautoauto1164.9904242000775auto1167.748166400008auto1167.4815828000428autoNoneauto0.036503410071557614auto1167.9813992000418autoNoneauto1167.9813992000418autoNoneauto1168.7853951000143autoNoneauto1168.7853951000143autoNoneautorightauto1.1070586999412626auto1168.7853951000143autoNoneauto1169.966717000003autoNoneauto1169.966717000003autoNoneautoleftauto0.8420145000563934auto1169.966717000003autoNoneauto-3.978314645233275auto148.66622223335415autoautoAdamFullauto001auto2021_Mar_30_1355autoAB_pic_singleT2auto2020.2.10auto60.2183275764758auto
ABautolag5auto5auto3auto8auto0.06000000005000003auto0.02auto0.3automainautoautoautoautoauto0auto60auto60auto60autoautoautoautoautoautoautoparkingmeter.jpgautolip.jpgautochristmastree.jpgautopaperairplane.jpgautoanchor.jpgautopenguin.jpgautoboxingglove01.jpgautotennisracket.jpgautotable01.jpgautorollerblade.jpgautomotorcycle.jpgautowheelchair.jpgautomicrophone01.jpgautocrosscountryski.jpgautorecyclingbin.jpgautochainsaw.jpgautocoffeemaker.jpgautoautoautoautoauto0auto0auto10autoautoautoautoauto.\resources\tennisracket.jpgautoautoauto1autoautoautoautoautoautoautoautoautoautoauto1autoautoautoautoautoautoauto1175.330354470038autoNoneautoNoneauto1175.330354470038autoNoneautoautoautoautoautoautoauto1170.8348940999713auto1173.597038900014auto1173.3302450000774autoNoneauto0.03608492181857288auto1173.8300021999748autoNoneauto1173.8300021999748autoNoneauto1174.4636819000589autoNoneauto1174.4636819000589autoNoneautorightauto0.6180896000005305auto1174.4636819000589autoNoneauto1175.1504301000386autoNoneauto1175.1504301000386autoNoneautorightauto0.15794579999055713auto1175.1504301000386autoNoneauto-3.9192740625422133auto148.65995840026903autoautoAdamFullauto001auto2021_Mar_30_1355autoAB_pic_singleT2auto2020.2.10auto60.2183275764758auto
ABautolag3auto3auto5auto8auto0.06000000005000003auto0.02auto0.3automainautoautoautoautoauto0auto61auto61auto61autoautoautoautoautoautoautolollipop04.jpgautomrpotatohead.jpgautomarble.jpgautoostrich.jpgautovulture.jpgautoparrot01.jpgautocrab01.jpgautoshower.jpgautoboat.jpgautohockeystick.jpgautosnowman.jpgautohulahoop.jpgautobacon.jpgautowallclock.jpgautocruiseship.jpgautofortunecookie.jpgautoeye.jpgautoautoautoautoauto1auto0auto10autoautoautoautoauto.\resources\shower.jpgautoautoauto1autoautoautoautoautoautoautoautoautoautoauto1autoautoautoautoautoautoauto1179.8116584700533autoNoneautoNoneauto1179.8116584700533autoNoneautoautoautoautoautoautoauto1175.3295006999979auto1178.0781055999687auto1177.8285639999667autoNoneauto0.03568929038293409auto1178.3286441999953autoNoneauto1178.3286441999953autoNoneauto1178.9454144000774autoNoneauto1178.9454144000774autoNoneautoleftauto0.6791107000317425auto1178.9454144000774autoNoneauto1179.6986262999708autoNoneauto1179.6986262999708autoNoneautorightauto0.0911767000798136auto1179.6986262999708autoNoneauto-3.863435329483112auto148.65490903857994autoautoAdamFullauto001auto2021_Mar_30_1355autoAB_pic_singleT2auto2020.2.10auto60.2183275764758auto
ABautolag4auto4auto5auto9auto0.06000000005000003auto0.02auto0.3automainautoautoautoautoauto0auto62auto62auto62autoautoautoautoautoautoautopopcorn.jpgautofootballhelmet.jpgautokite.jpgautobacon.jpgautogranolabar01.jpgautofrenchfries.jpgautokneepad01c.jpgautorecyclingbin.jpgautocobra.jpgautoafricanelephant.jpgautodromedary.jpgautoholdfast.jpgautoxylophone.jpgautosheep.jpgautomailbox02.jpgautotortoise01.jpgautoarrow02.jpgautoautoautoautoauto0auto1auto11autoautoautoautoauto.\resources\cobra.jpgautoautoauto1autoautoautoautoautoautoautoautoautoautoauto1autoautoautoautoautoautoauto1184.4103062699783autoNoneautoNoneauto1184.4103062699783autoNoneautoautoautoautoautoautoauto1179.8160403000657auto1182.577183400048auto1182.3104770000791autoNoneauto0.03531487607476559auto1182.811995199998autoNoneauto1182.811995199998autoNoneauto1183.4778005999979autoNoneauto1183.4778005999979autoNoneautorightauto0.7422017999924719auto1183.4778005999979autoNoneauto1184.2964253000682autoNoneauto1184.2964253000682autoNoneautoleftauto0.09406439994927496auto1184.2964253000682autoNoneauto-3.8105682644263363auto148.6510707853187autoautoAdamFullauto001auto2021_Mar_30_1355autoAB_pic_singleT2auto2020.2.10auto60.2183275764758auto
ABautolag1auto1auto3auto4auto0.06000000005000003auto0.02auto0.3automainautoautoautoautoauto0auto63auto63auto63autoautoautoautoautoautoautocrab01.jpgautocymbal.jpgautotoolbox02.jpgautopenguin.jpgautomoose.jpgautoswing.jpgautoeiffeltower.jpgautosteeringwheel.jpgautowaterfall.jpgautolawnmower.jpgautohockeystick.jpgautojellyfish.jpgautomagneticcompass.jpgautocallbell.jpgautodrumset.jpgautofoosballtable.jpgautoskateboard.jpgautoautoautoautoauto0auto0auto6autoautoautoautoauto.\resources\penguin.jpgautoautoauto1autoautoautoautoautoautoautoautoautoautoauto1autoautoautoautoautoautoauto1188.5760028699647autoNoneautoNoneauto1188.5760028699647autoNoneautoautoautoautoautoautoauto1184.4137075999752auto1187.175794800045auto1186.9095921000699autoNoneauto0.03496014255458352auto1187.4094211000483autoNoneauto1187.4094211000483autoNoneauto1187.809524100041autoNoneauto1187.809524100041autoNoneautorightauto0.5432467000791803auto1187.809524100041autoNoneauto1188.4266919000074autoNoneauto1188.4266919000074autoNoneautorightauto0.12133039999753237auto1188.4266919000074autoNoneauto-3.760458627780806auto148.64843731414513autoautoAdamFullauto001auto2021_Mar_30_1355autoAB_pic_singleT2auto2020.2.10auto60.2183275764758auto
ABautolag5auto5auto4auto9auto0.06000000005000003auto0.02auto0.3automainautoautoautoautoauto0auto64auto64auto64autoautoautoautoautoautoautococktailshrimp02.jpgautocar.jpgautobaseballbat.jpgautospiderweb.jpgautobarrel01.jpgautotricycle.jpgautoparrot01.jpgautobowlingpin.jpgautomotorcycle.jpgautopokerchips.jpgautovulture.jpgautofireplace.jpgautochefshat.jpgautospicerack.jpgautobeerbottle.jpgautoskippingrope.jpgautobacon.jpgautoautoautoautoauto0auto0auto11autoautoautoautoauto.\resources\motorcycle.jpgautoautoauto0autoautoautoautoautoautoautoautoautoautoauto1autoautoautoautoautoautoauto1193.457837869972autoNoneautoNoneauto1193.457837869972autoNoneautoautoautoautoautoautoauto1188.5817003999837auto1191.3413749000756auto1191.0747762999963autoNoneauto0.03462366024086646auto1191.5758407000685autoNoneauto1191.5758407000685autoNoneauto1192.2417019000277autoNoneauto1192.2417019000277autoNoneautoleftauto0.9749625999247655auto1192.2417019000277autoNoneauto1193.2948433000129autoNoneauto1193.2948433000129autoNoneautorightauto0.134389300015755auto1193.2948433000129autoNoneauto-3.929563923781973auto148.63723908513856autoautoAdamFullauto001auto2021_Mar_30_1355autoAB_pic_singleT2auto2020.2.10auto60.2183275764758auto
ABautolag4auto4auto3auto7auto0.06000000005000003auto0.02auto0.3automainautoautoautoautoauto0auto65auto65auto65autoautoautoautoautoautoautotricycle.jpgautobaseballbat.jpgautofunnel.jpgautodromedary.jpgautomicrowave.jpgautoeiffeltower.jpgautowaterfall.jpgautolighthouse.jpgautodormer.jpgautorose.jpgautochurch.jpgautotree.jpgautoexitsign.jpgautoswing.jpgautotank.jpgautopigeon.jpgautodolphin01.jpgautoautoautoautoauto1auto1auto9autoautoautoautoauto.\resources\waterfall.jpgautoautoauto1autoautoautoautoautoautoautoautoautoautoauto1autoautoautoautoautoautoauto1197.9902327699588autoNoneautoNoneauto1197.9902327699588autoNoneautoautoautoautoautoautoauto1193.458613499999auto1196.2232086000731auto1195.9566765000345autoNoneauto0.035763973534633335auto1196.456744999974autoNoneauto1196.456744999974autoNoneauto1197.0243361999746autoNoneauto1197.0243361999746autoNoneautoleftauto0.7151014000410214auto1197.0243361999746autoNoneauto1197.809609799995autoNoneauto1197.809609799995autoNoneautoleftauto0.15967670001555234auto1197.809609799995autoNoneauto-3.919285216219732auto148.6319684445326autoautoAdamFullauto001auto2021_Mar_30_1355autoAB_pic_singleT2auto2020.2.10auto60.2183275764758auto
ABautolag7auto7auto3auto10auto0.06000000005000003auto0.02auto0.3automainautoautoautoautoauto0auto66auto66auto66autoautoautoautoautoautoautojeep.jpgautocupcake.jpgautoscooter.jpgautoelectrictoothbrush01c.jpgautochimney.jpgautococktailshrimp02.jpgautoenglishcucumber.jpgautoironingboard01.jpgautojellybean.jpgautomarble.jpgautopingpongtable.jpgautosurfboard.jpgautonose.jpgautoporcupine.jpgautochair.jpgautobeaver.jpgautomakiroll.jpgautoautoautoautoauto0auto0auto12autoautoautoautoauto.\resources\marble.jpgautoautoauto1autoautoautoautoautoautoautoautoautoautoauto1autoautoautoautoautoautoauto1202.3217199700653autoNoneautoNoneauto1202.3217199700653autoNoneautoautoautoautoautoautoauto1197.993840900017auto1200.755140400026auto1200.4886493000668autoNoneauto0.035696086332326224auto1200.9919299000176autoNoneauto1200.9919299000176autoNoneauto1201.7230125999777autoNoneauto1201.7230125999777autoNoneautorightauto0.39371919992845505auto1201.7230125999777autoNoneauto1202.1933271000162autoNoneauto1202.1933271000162autoNoneautorightauto0.10050379997119308auto1202.1933271000162autoNoneauto-3.8813605886539913auto148.62852627334328autoautoAdamFullauto001auto2021_Mar_30_1355autoAB_pic_singleT2auto2020.2.10auto60.2183275764758auto
