trialType,cndTyp,lag,T1_loc,T2_loc,stimLen,isi,skipProb,phase,trials.thisRepN,trials.thisTrialN,trials.thisN,trials.thisIndex,trials2.thisRepN,trials2.thisTrialN,trials2.thisN,trials2.thisIndex,text_3.started,text_3.stopped,key_resp_4.keys,key_resp_4.rt,key_resp_4.started,key_resp_4.stopped,img0,img1,img2,img3,img4,img5,img6,img7,img8,img9,img10,img11,img12,img13,img14,img15,img16,option1.started,option1.stopped,option2.started,option2.stopped,text_2.started,text_2.stopped,skip1,skip2,lastPresent,displayPicture.started,displayPicture.stopped,polygon_2.started,polygon_2.stopped,opt1_t1,polygon_4.started,polygon_4.stopped,cor1,option1_t1.started,option1_t1.stopped,key_resp.keys,key_resp.rt,key_resp.started,key_resp.stopped,polygon_5.started,polygon_5.stopped,cor2,option1_t2.started,option1_t2.stopped,key_resp_2.keys,key_resp_2.rt,key_resp_2.started,key_resp_2.stopped,feedbackText.started,feedbackText.stopped,text.started,text.stopped,key_resp_3.keys,key_resp_3.started,key_resp_3.stopped,text_4.started,text_4.stopped,key_resp_7.keys,key_resp_7.rt,key_resp_7.started,key_resp_7.stopped,option1_2.started,option1_2.stopped,option2_2.started,option2_2.stopped,text_5.started,text_5.stopped,t0,t1,t2,t3,t4,t5,t6,t7,t8,t9,t10,t11,t12,t13,displayPicture_3.started,displayPicture_3.stopped,polygon_13.started,polygon_13.stopped,polygon_7.started,polygon_7.stopped,option1_t1_2.started,option1_t1_2.stopped,key_resp_6.keys,key_resp_6.rt,key_resp_6.started,key_resp_6.stopped,polygon_6.started,polygon_6.stopped,option1_t2_2.started,option1_t2_2.stopped,key_resp_5.keys,key_resp_5.rt,key_resp_5.started,key_resp_5.stopped,t14,key_resp_3.rt,participant,session,date,expName,psychopyVersion,frameRate,
,,,,,,,,,,,,,,,,,9.661926800006768,None,space,88.98211480000464,9.661926800006768,None,,,,,,,,,,,,,,,,,,,,,,,,,,,,,,,,,,,,,,,,,,,,,,,,,,,,,,,,,,,,,,,,,,,,,,,,,,,,,,,,,,,,,,,,,,,,,,,,,,,,,,,,,Alex,001,2021_Mar_17_1403,AB_pic,2020.2.10,60.00096001393897,
AB,lag1,1,3,4,0.2,0.05,0.5,,0,0,0,3,,,,,,,,,,,lip.jpg,steeringwheel.jpg,callbell.jpg,hulahoop.jpg,safe.jpg,dandelion.jpg,waterfall.jpg,flag.jpg,pirateflag.jpg,xylophone.jpg,statue.jpg,ceilingfan01.jpg,bluecheese.jpg,tarantula.jpg,hammerheadshark.jpg,toad.jpg,windshieldwiper02.jpg,98.71794870001031,101.46733010000025,98.71794870001031,101.46733010000025,101.2007023000042,None,1,1,6,101.68398800000432,None,101.68398800000432,None,.\resources\hulahoop.jpg,103.45053700001154,None,1,103.45053700001154,None,left,10.089620099999593,103.45053700001154,None,113.58325720000721,None,1,113.58325720000721,None,left,3.2208685999939917,113.58325720000721,None,116.84964880000916,None,117.84957128000823,None,None,117.84957128000823,None,,,,,,,,,,,,,,,,,,,,,,,,,,,,,,,,,,,,,,,,,,,,,,,,,Alex,001,2021_Mar_17_1403,AB_pic,2020.2.10,60.00096001393897,
AB,lag3,3,3,6,0.2,0.05,0.5,,0,1,1,5,,,,,,,,,,,bluecheese.jpg,tire.jpg,safe.jpg,ceilingfan01.jpg,steeringwheel.jpg,spear02.jpg,dragonfly01.jpg,dalmatian.jpg,horseshoe.jpg,hammerheadshark.jpg,skateboard.jpg,pirateflag.jpg,waterfall.jpg,statue.jpg,hulahoop.jpg,volleyball.jpg,sandcastle.jpg,117.86624590000429,120.61609090000275,117.86624590000429,120.61609090000275,120.3494081000099,None,0,1,8,120.8493989000126,None,120.8493989000126,None,.\resources\spear02.jpg,123.11591990001034,None,1,123.11591990001034,None,right,0.6640697000111686,123.11591990001034,None,123.81587430000945,None,0,123.81587430000945,None,right,0.8921212999994168,123.81587430000945,None,124.74912300000142,None,125.74905308000015,None,None,125.74905308000015,None,,,,,,,,,,,,,,,,,,,,,,,,,,,,,,,,,,,,,,,,,,,,,,,,,Alex,001,2021_Mar_17_1403,AB_pic,2020.2.10,60.00096001393897,
AB,lag5,5,4,9,0.2,0.05,0.5,,0,2,2,11,,,,,,,,,,,toad.jpg,spear02.jpg,ceilingfan01.jpg,sandcastle.jpg,windshieldwiper02.jpg,dalmatian.jpg,bluecheese.jpg,hammerheadshark.jpg,dragonfly01.jpg,jellybean.jpg,sausage.jpg,volleyball.jpg,football.jpg,dandelion.jpg,steeringwheel.jpg,waterfall.jpg,safe.jpg,125.76568390001194,128.5155330000125,125.76568390001194,128.5155330000125,128.23221900001226,None,1,1,11,128.7321937000088,None,128.7321937000088,None,.\resources\dragonfly01.jpg,131.74866110000585,None,1,131.74866110000585,None,left,1.1433476000092924,131.74866110000585,None,132.9318945999985,None,1,132.9318945999985,None,left,1.2482793000090169,132.9318945999985,None,134.21529350000492,None,135.21524017999909,None,None,135.21524017999909,None,,,,,,,,,,,,,,,,,,,,,,,,,,,,,,,,,,,,,,,,,,,,,,,,,Alex,001,2021_Mar_17_1403,AB_pic,2020.2.10,60.00096001393897,
AB,lag7,7,5,12,0.2,0.05,0.5,,0,3,3,7,,,,,,,,,,,dragonfly01.jpg,sausage.jpg,hammerheadshark.jpg,horseshoe.jpg,porcupine.jpg,christmastree.jpg,dandelion.jpg,safe.jpg,windshieldwiper02.jpg,tarantula.jpg,toad.jpg,jellybean.jpg,skateboard.jpg,pirateflag.jpg,steeringwheel.jpg,football.jpg,lip.jpg,135.23180280000088,137.9815784000093,135.23180280000088,137.9815784000093,137.71492260000377,None,1,1,14,138.21489430000656,None,138.21489430000656,None,.\resources\jellybean.jpg,141.98131020000437,None,1,141.98131020000437,None,left,0.7826666000037221,141.98131020000437,None,142.7979278999992,None,1,142.7979278999992,None,left,0.862193799999659,142.7979278999992,None,143.6811982000072,None,144.68113687999866,None,None,144.68113687999866,None,,,,,,,,,,,,,,,,,,,,,,,,,,,,,,,,,,,,,,,,,,,,,,,,,Alex,001,2021_Mar_17_1403,AB_pic,2020.2.10,60.00096001393897,
AB,lag6,6,5,11,0.2,0.05,0.5,,0,4,4,8,,,,,,,,,,,flag.jpg,volleyball.jpg,tarantula.jpg,ceilingfan01.jpg,toad.jpg,football.jpg,bluecheese.jpg,pirateflag.jpg,horseshoe.jpg,dragonfly01.jpg,callbell.jpg,dandelion.jpg,waterfall.jpg,safe.jpg,tire.jpg,porcupine.jpg,sandcastle.jpg,144.6978009000013,147.44763280000188,144.6978009000013,147.44763280000188,147.16430670001137,None,1,0,13,147.66426770000544,None,147.66426770000544,None,.\resources\callbell.jpg,151.18069820001256,None,1,151.18069820001256,None,left,0.9835013999982039,151.18069820001256,None,152.1974678000115,None,1,152.1974678000115,None,right,0.7345244000025559,152.1974678000115,None,152.94725460000336,None,153.94719088000565,None,None,153.94719088000565,None,,,,,,,,,,,,,,,,,,,,,,,,,,,,,,,,,,,,,,,,,,,,,,,,,Alex,001,2021_Mar_17_1403,AB_pic,2020.2.10,60.00096001393897,
AB,lag4,4,3,7,0.2,0.05,0.5,,0,5,5,1,,,,,,,,,,,dandelion.jpg,horseshoe.jpg,skateboard.jpg,dragonfly01.jpg,steeringwheel.jpg,spear02.jpg,christmastree.jpg,statue.jpg,tarantula.jpg,porcupine.jpg,callbell.jpg,waterfall.jpg,flag.jpg,jellybean.jpg,volleyball.jpg,dalmatian.jpg,tire.jpg,153.96387340000365,156.7136759999994,153.96387340000365,156.7136759999994,156.43035170000803,None,1,0,9,156.9303232000093,None,156.9303232000093,None,.\resources\christmastree.jpg,159.4468307000061,None,1,159.4468307000061,None,left,1.7891592999949353,159.4468307000061,None,161.28003040001204,None,1,161.28003040001204,None,right,0.48392389999935403,161.28003040001204,None,161.77999980001186,None,162.7799193800034,None,None,162.7799193800034,None,,,,,,,,,,,,,,,,,,,,,,,,,,,,,,,,,,,,,,,,,,,,,,,,,Alex,001,2021_Mar_17_1403,AB_pic,2020.2.10,60.00096001393897,
AB,lag2,2,5,7,0.2,0.05,0.5,,0,6,6,9,,,,,,,,,,,hulahoop.jpg,toad.jpg,football.jpg,callbell.jpg,dalmatian.jpg,dragonfly01.jpg,sandcastle.jpg,hammerheadshark.jpg,steeringwheel.jpg,lip.jpg,ceilingfan01.jpg,waterfall.jpg,safe.jpg,xylophone.jpg,pirateflag.jpg,christmastree.jpg,windshieldwiper02.jpg,162.79660560000048,165.54643610000494,162.79660560000048,165.54643610000494,165.2631365999987,None,0,0,9,165.76310029999877,None,165.76310029999877,None,.\resources\sandcastle.jpg,168.27960520000488,None,1,168.27960520000488,None,right,1.2203613000019686,168.27960520000488,None,169.5461207000044,None,1,169.5461207000044,None,right,0.4259693000058178,169.5461207000044,None,169.99612210001214,None,170.99604388000589,None,None,170.99604388000589,None,,,,,,,,,,,,,,,,,,,,,,,,,,,,,,,,,,,,,,,,,,,,,,,,,Alex,001,2021_Mar_17_1403,AB_pic,2020.2.10,60.00096001393897,
AB,lag1,1,4,5,0.2,0.05,0.5,,0,7,7,12,,,,,,,,,,,flag.jpg,jellybean.jpg,volleyball.jpg,pirateflag.jpg,christmastree.jpg,toad.jpg,sandcastle.jpg,football.jpg,dalmatian.jpg,callbell.jpg,tire.jpg,ceilingfan01.jpg,sausage.jpg,spear02.jpg,dandelion.jpg,waterfall.jpg,hammerheadshark.jpg,171.01272840000456,173.76253649999853,171.01272840000456,173.76253649999853,173.4792221000098,None,1,1,7,173.97921410000708,None,173.97921410000708,None,.\resources\christmastree.jpg,175.99569140000676,None,1,175.99569140000676,None,left,1.2162695000006352,175.99569140000676,None,177.24566420000338,None,1,177.24566420000338,None,left,0.7903332999994745,177.24566420000338,None,178.06225420000555,None,179.06221578001131,None,None,179.06221578001131,None,,,,,,,,,,,,,,,,,,,,,,,,,,,,,,,,,,,,,,,,,,,,,,,,,Alex,001,2021_Mar_17_1403,AB_pic,2020.2.10,60.00096001393897,
AB,lag2,2,3,5,0.2,0.05,0.5,,0,8,8,4,,,,,,,,,,,ceilingfan01.jpg,hulahoop.jpg,bluecheese.jpg,volleyball.jpg,toad.jpg,dragonfly01.jpg,tire.jpg,pirateflag.jpg,dalmatian.jpg,spear02.jpg,sausage.jpg,dandelion.jpg,flag.jpg,horseshoe.jpg,windshieldwiper02.jpg,callbell.jpg,tarantula.jpg,179.0788648000016,181.8286703000049,179.0788648000016,181.8286703000049,181.54535120000946,None,0,1,7,182.04532499999914,None,182.04532499999914,None,.\resources\toad.jpg,184.06185570001253,None,0,184.06185570001253,None,left,0.9661336999997729,184.06185570001253,None,185.0618009000027,None,0,185.0618009000027,None,right,0.5501806999964174,185.0618009000027,None,185.64509060001,None,186.64503548000502,None,None,186.64503548000502,None,,,,,,,,,,,,,,,,,,,,,,,,,,,,,,,,,,,,,,,,,,,,,,,,,Alex,001,2021_Mar_17_1403,AB_pic,2020.2.10,60.00096001393897,
AB,lag6,6,5,11,0.2,0.05,0.5,,0,9,9,0,,,,,,,,,,,steeringwheel.jpg,windshieldwiper02.jpg,hulahoop.jpg,sausage.jpg,christmastree.jpg,dalmatian.jpg,hammerheadshark.jpg,flag.jpg,waterfall.jpg,skateboard.jpg,football.jpg,spear02.jpg,dandelion.jpg,toad.jpg,safe.jpg,statue.jpg,lip.jpg,186.66172590000497,189.41149650000443,186.66172590000497,189.41149650000443,189.12866020000365,None,0,1,13,189.644844800001,None,189.644844800001,None,.\resources\football.jpg,193.14460930001223,None,1,193.14460930001223,None,right,12.499435300007463,193.14460930001223,None,205.67709810000088,None,1,205.67709810000088,None,left,0.470908999996027,205.67709810000088,None,206.1770600000018,None,207.17698558000993,None,None,207.17698558000993,None,,,,,,,,,,,,,,,,,,,,,,,,,,,,,,,,,,,,,,,,,,,,,,,,,Alex,001,2021_Mar_17_1403,AB_pic,2020.2.10,60.00096001393897,
AB,lag7,7,4,11,0.2,0.05,0.5,,0,10,10,2,,,,,,,,,,,sausage.jpg,statue.jpg,jellybean.jpg,ceilingfan01.jpg,hulahoop.jpg,windshieldwiper02.jpg,spear02.jpg,safe.jpg,sandcastle.jpg,tire.jpg,football.jpg,tarantula.jpg,volleyball.jpg,dandelion.jpg,hammerheadshark.jpg,pirateflag.jpg,christmastree.jpg,207.19372770001064,209.94350960000884,207.19372770001064,209.94350960000884,209.66019350000715,None,0,1,13,210.160166200003,None,210.160166200003,None,.\resources\football.jpg,213.6765960000048,None,0,213.6765960000048,None,left,0.9513127000100212,213.6765960000048,None,214.65985580001143,None,1,214.65985580001143,None,left,0.776156699997955,214.65985580001143,None,215.45977860000858,None,216.45970448000443,None,None,216.45970448000443,None,,,,,,,,,,,,,,,,,,,,,,,,,,,,,,,,,,,,,,,,,,,,,,,,,Alex,001,2021_Mar_17_1403,AB_pic,2020.2.10,60.00096001393897,
AB,lag4,4,4,8,0.2,0.05,0.5,,0,11,11,13,,,,,,,,,,,tire.jpg,hammerheadshark.jpg,windshieldwiper02.jpg,tarantula.jpg,jellybean.jpg,dandelion.jpg,football.jpg,spear02.jpg,sandcastle.jpg,horseshoe.jpg,safe.jpg,pirateflag.jpg,steeringwheel.jpg,flag.jpg,sausage.jpg,statue.jpg,porcupine.jpg,216.4763823000103,219.22621680000157,216.4763823000103,219.22621680000157,218.94331909999892,None,1,0,10,219.44287120000808,None,219.44287120000808,None,.\resources\spear02.jpg,222.20947600000363,None,1,222.20947600000363,None,left,3.0504543999995803,222.20947600000363,None,225.29246920000878,None,1,225.29246920000878,None,right,0.4714513000071747,225.29246920000878,None,225.79242690000683,None,226.79240528000955,None,None,226.79240528000955,None,,,,,,,,,,,,,,,,,,,,,,,,,,,,,,,,,,,,,,,,,,,,,,,,,Alex,001,2021_Mar_17_1403,AB_pic,2020.2.10,60.00096001393897,
AB,lag5,5,4,9,0.2,0.05,0.5,,0,12,12,6,,,,,,,,,,,porcupine.jpg,steeringwheel.jpg,toad.jpg,volleyball.jpg,dandelion.jpg,ceilingfan01.jpg,callbell.jpg,hammerheadshark.jpg,tarantula.jpg,spear02.jpg,hulahoop.jpg,skateboard.jpg,waterfall.jpg,lip.jpg,pirateflag.jpg,flag.jpg,dalmatian.jpg,226.80907230000594,229.55884500000684,226.80907230000594,229.55884500000684,229.2755302000005,None,1,1,11,229.77551250001125,None,229.77551250001125,None,.\resources\tarantula.jpg,232.79197150000255,None,1,232.79197150000255,None,left,0.9239814000029583,232.79197150000255,None,233.75860210000246,None,1,233.75860210000246,None,left,0.4614507000078447,233.75860210000246,None,234.24187240000174,None,235.24179698000225,None,None,235.24179698000225,None,,,,,,,,,,,,,,,,,,,,,,,,,,,,,,,,,,,,,,,,,,,,,,,,,Alex,001,2021_Mar_17_1403,AB_pic,2020.2.10,60.00096001393897,
AB,lag3,3,5,8,0.2,0.05,0.5,,0,13,13,10,,,,,,,,,,,dragonfly01.jpg,callbell.jpg,steeringwheel.jpg,volleyball.jpg,porcupine.jpg,pirateflag.jpg,ceilingfan01.jpg,tire.jpg,flag.jpg,lip.jpg,waterfall.jpg,sausage.jpg,horseshoe.jpg,jellybean.jpg,hulahoop.jpg,christmastree.jpg,dalmatian.jpg,235.25849079999898,238.00830169999972,235.25849079999898,238.00830169999972,237.72496720000345,None,1,1,10,238.22496390000742,None,238.22496390000742,None,.\resources\tire.jpg,240.99144360001083,None,1,240.99144360001083,None,left,0.7965134000114631,240.99144360001083,None,241.8247185000073,None,1,241.8247185000073,None,left,0.5632174999918789,241.8247185000073,None,242.40800750000926,None,243.40796548000216,None,None,243.40796548000216,None,,,,,,,,,,,,,,,,,,,,,,,,,,,,,,,,,,,,,,,,,,,,,,,,,Alex,001,2021_Mar_17_1403,AB_pic,2020.2.10,60.00096001393897,
,,,,,,,,,,,,,,,,,,,,,,,,,,,,,,,,,,,,,,,,,,,,,,,,,,,,,,,,,,,,,,,,,,,,,,,,,,,,,,,243.42461000000185,None,space,13.377731000000495,243.42461000000185,None,,,,,,,,,,,,,,,,,,,,,,,,,,,,,,,,,,,,,,,,,,,Alex,001,2021_Mar_17_1403,AB_pic,2020.2.10,60.00096001393897,
AB,lag6,6,5,11,0.2,0.05,0.5,ramp,,,,,0,0,0,0,,,,,,,dandelion.jpg,hulahoop.jpg,safe.jpg,steeringwheel.jpg,dalmatian.jpg,porcupine.jpg,waterfall.jpg,toad.jpg,volleyball.jpg,xylophone.jpg,lip.jpg,horseshoe.jpg,callbell.jpg,jellybean.jpg,windshieldwiper02.jpg,statue.jpg,football.jpg,,,,,,,0,0,13,,,,,.\resources\lip.jpg,,,0,,,,,,,,,1,,,,,,,,,266.4064080800032,None,None,266.4064080800032,None,,,,,,,256.87366450000263,259.6240017000091,256.87366450000263,259.6240017000091,259.35720320000837,None,0.2655001000093762,0.5155075000075158,0.7654917000036221,1.015468099998543,1.2654711000068346,1.515424700002768,1.7654060000058962,2.01538920000894,2.265436600006069,2.5153809000039473,2.765357700001914,3.015347100008512,3.2653410000057193,3.5153384000004735,259.8572836000094,None,259.8572836000094,None,263.37331510000513,None,263.37331510000513,None,left,0.7906602000002749,263.37331510000513,None,264.2066964000114,None,264.2066964000114,None,right,2.181226200002129,264.2066964000114,None,,,Alex,001,2021_Mar_17_1403,AB_pic,2020.2.10,60.00096001393897,
AB,lag4,4,4,8,0.193334,0.046666700000000005,0.48,ramp,,,,,0,1,1,1,,,,,,,safe.jpg,callbell.jpg,football.jpg,hulahoop.jpg,sandcastle.jpg,steeringwheel.jpg,hammerheadshark.jpg,volleyball.jpg,jellybean.jpg,windshieldwiper02.jpg,horseshoe.jpg,christmastree.jpg,ceilingfan01.jpg,pirateflag.jpg,lip.jpg,bluecheese.jpg,sausage.jpg,,,,,,,1,1,10,,,,,.\resources\volleyball.jpg,,,1,,,,,,,,,1,,,,,,,,,273.75592838000887,None,None,273.75592838000887,None,,,,,,,266.4230823000107,269.173328600009,266.4230823000107,269.173328600009,268.90625290000753,None,0.24790269999357406,0.4817274999950314,0.7312531000061426,0.9645059000031324,1.214545900002122,1.4478480999969179,1.6811601999943377,1.9311285000003409,2.164458500003093,2.414435800004867,2.647749700001441,,,,269.406221199999,None,269.406221199999,None,272.072702400008,None,272.072702400008,None,left,1.163198000009288,272.072702400008,None,273.2726476000098,None,273.2726476000098,None,left,0.4512335999897914,273.2726476000098,None,,,Alex,001,2021_Mar_17_1403,AB_pic,2020.2.10,60.00096001393897,
AB,lag7,7,4,11,0.186668,0.04333340000000001,0.45999999999999996,ramp,,,,,0,2,2,2,,,,,,,dragonfly01.jpg,pirateflag.jpg,porcupine.jpg,xylophone.jpg,volleyball.jpg,hammerheadshark.jpg,sandcastle.jpg,waterfall.jpg,safe.jpg,football.jpg,dalmatian.jpg,callbell.jpg,skateboard.jpg,ceilingfan01.jpg,christmastree.jpg,dandelion.jpg,tarantula.jpg,,,,,,,1,0,13,,,,,.\resources\dalmatian.jpg,,,1,,,,,,,,,1,,,,,,,,,282.7719807800037,None,None,282.7719807800037,None,,,,,,,273.7726287000114,276.5228070000012,273.7726287000114,276.5228070000012,276.25617480000074,None,0.23158500000135973,0.4644698999909451,0.6977577999932691,0.9311503999924753,1.1644171999942046,1.3810758999898098,1.6143765000015264,1.8477271999872755,2.081021399993915,2.3143657999899006,2.5309699999925215,2.7643752000003587,2.9976843999902485,3.230959599997732,276.7557225000055,None,276.7557225000055,None,280.00551709999854,None,280.00551709999854,None,left,2.246354599992628,280.00551709999854,None,282.2887020000053,None,282.2887020000053,None,right,0.4671941999986302,282.2887020000053,None,,,Alex,001,2021_Mar_17_1403,AB_pic,2020.2.10,60.00096001393897,
AB,lag5,5,5,10,0.180002,0.04000010000000001,0.43999999999999995,ramp,,,,,0,3,3,3,,,,,,,flag.jpg,horseshoe.jpg,jellybean.jpg,windshieldwiper02.jpg,dalmatian.jpg,safe.jpg,dandelion.jpg,toad.jpg,spear02.jpg,ceilingfan01.jpg,waterfall.jpg,bluecheese.jpg,hammerheadshark.jpg,statue.jpg,tarantula.jpg,steeringwheel.jpg,christmastree.jpg,,,,,,,1,0,12,,,,,.\resources\ceilingfan01.jpg,,,1,,,,,,,,,0,,,,,,,,,290.23819858000354,None,None,290.23819858000354,None,,,,,,,282.7886719000089,285.5389830000058,282.7886719000089,285.5389830000058,285.2722800000047,None,0.23135349999938626,0.4475207999930717,0.6642071999958716,0.8809030999982497,1.1141919999936363,1.3308293000009144,1.5474948000046425,1.7641357999964384,1.9807902000029571,2.2141011000057915,2.4309384999942267,2.647416899999371,2.8640569999988656,,285.77177250001114,None,285.77177250001114,None,288.6549614000105,None,288.6549614000105,None,left,0.9249363999988418,288.6549614000105,None,289.6215538000106,None,289.6215538000106,None,left,0.5905636999959825,289.6215538000106,None,,,Alex,001,2021_Mar_17_1403,AB_pic,2020.2.10,60.00096001393897,
AB,lag2,2,3,5,0.173336,0.03666680000000001,0.41999999999999993,ramp,,,,,0,4,4,4,,,,,,,safe.jpg,tarantula.jpg,skateboard.jpg,callbell.jpg,bluecheese.jpg,sandcastle.jpg,ceilingfan01.jpg,dandelion.jpg,hulahoop.jpg,toad.jpg,sausage.jpg,horseshoe.jpg,xylophone.jpg,spear02.jpg,jellybean.jpg,lip.jpg,waterfall.jpg,,,,,,,1,0,7,,,,,.\resources\bluecheese.jpg,,,1,,,,,,,,,0,,,,,,,,,296.5044208800115,None,None,296.5044208800115,None,,,,,,,290.2548487000022,293.0050967999996,290.2548487000022,293.0050967999996,292.73844310001004,None,0.21459049999248236,0.4312395999877481,0.6312643999990541,0.8479389999993145,1.0645345999946585,1.264518299998599,1.481171399995219,1.6811651999887545,,,,,,,293.23797780000314,None,293.23797780000314,None,294.93786860001273,None,294.93786860001273,None,left,1.0020393000013428,294.93786860001273,None,295.9877901,None,295.9877901,None,left,0.4881219999952009,295.9877901,None,,,Alex,001,2021_Mar_17_1403,AB_pic,2020.2.10,60.00096001393897,
AB,lag3,3,5,8,0.16666999999999998,0.033333500000000016,0.3999999999999999,ramp,,,,,0,5,5,5,,,,,,,christmastree.jpg,tire.jpg,xylophone.jpg,windshieldwiper02.jpg,flag.jpg,safe.jpg,waterfall.jpg,hammerheadshark.jpg,volleyball.jpg,callbell.jpg,porcupine.jpg,statue.jpg,sandcastle.jpg,hulahoop.jpg,tarantula.jpg,pirateflag.jpg,jellybean.jpg,,,,,,,0,0,10,,,,,.\resources\hammerheadshark.jpg,,,1,,,,,,,,,1,,,,,,,,,302.78732768001066,None,None,302.78732768001066,None,,,,,,,296.52109819999896,299.2713480000093,296.52109819999896,299.2713480000093,299.00429430000077,None,0.21409969999513123,0.41453890000411775,0.6140788999910001,0.8141546999977436,1.0140958999982104,1.2140474000043469,1.4140460999915376,1.6140850999945542,1.814003599996795,2.0139960999949835,2.213988999996218,,,,299.5042320000066,None,299.5042320000066,None,301.7374281000084,None,301.7374281000084,None,right,0.6024633000051836,301.7374281000084,None,302.3873719000112,None,302.3873719000112,None,right,0.37653179999324493,302.3873719000112,None,,,Alex,001,2021_Mar_17_1403,AB_pic,2020.2.10,60.00096001393897,
AB,lag1,1,4,5,0.16000399999999998,0.030000200000000015,0.3799999999999999,ramp,,,,,0,6,6,6,,,,,,,dalmatian.jpg,christmastree.jpg,horseshoe.jpg,statue.jpg,waterfall.jpg,spear02.jpg,steeringwheel.jpg,callbell.jpg,dandelion.jpg,tarantula.jpg,hulahoop.jpg,lip.jpg,dragonfly01.jpg,skateboard.jpg,pirateflag.jpg,hammerheadshark.jpg,volleyball.jpg,,,,,,,1,1,7,,,,,.\resources\waterfall.jpg,,,1,,,,,,,,,1,,,,,,,,,309.55360188000634,None,None,309.55360188000634,None,,,,,,,302.80401710000297,305.55426440000883,302.80401710000297,305.55426440000883,305.2876108000055,None,0.19826049999392126,0.3810945000004722,0.5810119999950984,0.7643354000028921,0.9643417000042973,1.147643499993137,1.331036799994763,1.531028299999889,,,,,,,305.78714169999876,None,305.78714169999876,None,307.33704100000614,None,307.33704100000614,None,left,1.2348770999960834,307.33704100000614,None,308.6036524000083,None,308.6036524000083,None,left,0.9202984000003198,308.6036524000083,None,,,Alex,001,2021_Mar_17_1403,AB_pic,2020.2.10,60.00096001393897,
AB,lag6,6,5,11,0.15333799999999997,0.026666900000000014,0.3599999999999999,ramp,,,,,0,7,7,7,,,,,,,waterfall.jpg,skateboard.jpg,jellybean.jpg,football.jpg,hulahoop.jpg,sandcastle.jpg,lip.jpg,dalmatian.jpg,dandelion.jpg,christmastree.jpg,tarantula.jpg,sausage.jpg,steeringwheel.jpg,statue.jpg,safe.jpg,tire.jpg,spear02.jpg,,,,,,,0,0,13,,,,,.\resources\tarantula.jpg,,,1,,,,,,,,,1,,,,,,,,,316.25315478000414,None,None,316.25315478000414,None,,,,,,,309.57023130000744,312.3200696999993,309.57023130000744,312.3200696999993,312.0534375999996,None,0.18077960000664461,0.3641599000111455,0.5474395000055665,0.7307328000024427,0.9140651000052458,1.0807170000043698,1.2640301000064937,1.447359800004051,1.6306798000005074,1.8140643000078853,1.9806902999989688,2.1640401000040583,2.347285499999998,2.5306256000039866,312.5533929000085,None,312.5533929000085,None,315.1032266000111,None,315.1032266000111,None,right,0.652885100003914,315.1032266000111,None,315.80314990000625,None,315.80314990000625,None,right,0.4250529999990249,315.80314990000625,None,,,Alex,001,2021_Mar_17_1403,AB_pic,2020.2.10,60.00096001393897,
AB,lag3,3,4,7,0.14667199999999997,0.023333600000000013,0.33999999999999986,ramp,,,,,0,8,8,8,,,,,,,steeringwheel.jpg,hulahoop.jpg,football.jpg,horseshoe.jpg,statue.jpg,volleyball.jpg,safe.jpg,christmastree.jpg,callbell.jpg,sausage.jpg,hammerheadshark.jpg,porcupine.jpg,waterfall.jpg,xylophone.jpg,dandelion.jpg,ceilingfan01.jpg,jellybean.jpg,,,,,,,0,0,9,,,,,.\resources\safe.jpg,,,1,,,,,,,,,1,,,,,,,,,326.41915038001173,None,None,326.41915038001173,None,,,,,,,316.27037810000184,319.01960210000107,316.27037810000184,319.01960210000107,318.7529533000052,None,0.18118650000542402,0.34784460000810213,0.51456500000495,0.6812101000105031,0.8645396000065375,1.0311455000046408,1.1977975000045262,1.3644448999984888,1.5310986999975285,1.7144152000109898,,,,,319.2529235000111,None,319.2529235000111,None,320.9861401000089,None,320.9861401000089,None,right,4.9858557999978075,320.9861401000089,None,326.01914230000693,None,326.01914230000693,None,right,0.36884520000603516,326.01914230000693,None,,,Alex,001,2021_Mar_17_1403,AB_pic,2020.2.10,60.00096001393897,
AB,lag4,4,4,8,0.14000599999999996,0.020000300000000013,0.31999999999999984,ramp,,,,,0,9,9,9,,,,,,,lip.jpg,toad.jpg,tarantula.jpg,christmastree.jpg,hulahoop.jpg,hammerheadshark.jpg,safe.jpg,waterfall.jpg,spear02.jpg,bluecheese.jpg,windshieldwiper02.jpg,jellybean.jpg,pirateflag.jpg,flag.jpg,sausage.jpg,dragonfly01.jpg,porcupine.jpg,,,,,,,0,1,10,,,,,.\resources\waterfall.jpg,,,1,,,,,,,,,0,,,,,,,,,333.46867427999825,None,None,333.46867427999825,None,,,,,,,326.4358032000018,329.18609310001193,326.4358032000018,329.18609310001193,328.9189697000111,None,0.16473869999754243,0.33142839999345597,0.48161879999679513,0.648203899996588,0.814296500000637,0.9642879000020912,1.1309768999926746,1.2809313999896403,1.4476042999885976,1.6142186999932164,1.7642282999877352,,,,329.4189650000044,None,329.4189650000044,None,331.20219490000454,None,331.20219490000454,None,right,1.4736588000087067,331.20219490000454,None,332.7187367000006,None,332.7187367000006,None,right,0.7331148000084795,332.7187367000006,None,,,Alex,001,2021_Mar_17_1403,AB_pic,2020.2.10,60.00096001393897,
AB,lag5,5,4,9,0.13333999999999996,0.02,0.2999999999999998,ramp,,,,,0,10,10,10,,,,,,,dalmatian.jpg,statue.jpg,hammerheadshark.jpg,bluecheese.jpg,windshieldwiper02.jpg,xylophone.jpg,toad.jpg,sausage.jpg,pirateflag.jpg,waterfall.jpg,safe.jpg,porcupine.jpg,hulahoop.jpg,tarantula.jpg,lip.jpg,callbell.jpg,sandcastle.jpg,,,,,,,0,1,11,,,,,.\resources\pirateflag.jpg,,,1,,,,,,,,,0,,,,,,,,,339.7515642800005,None,None,339.7515642800005,None,,,,,,,333.48536160000367,336.2351189000037,333.48536160000367,336.2351189000037,335.96851080001215,None,0.16478920000372455,0.31481340000755154,0.46474760001001414,0.6147373999992851,0.781410199997481,0.9313852000050247,1.0813882000074955,1.2313661000080174,1.3813643000030424,1.548006400000304,1.698000200005481,1.8480035000102362,,,336.4684907000046,None,336.4684907000046,None,338.3350017000048,None,338.3350017000048,None,right,0.9728251000051387,338.3350017000048,None,339.3516152000084,None,339.3516152000084,None,right,0.38024299999233335,339.3516152000084,None,,,Alex,001,2021_Mar_17_1403,AB_pic,2020.2.10,60.00096001393897,
AB,lag2,2,3,5,0.12667399999999995,0.02,0.2799999999999998,ramp,,,,,0,11,11,11,,,,,,,horseshoe.jpg,bluecheese.jpg,callbell.jpg,volleyball.jpg,ceilingfan01.jpg,dandelion.jpg,safe.jpg,xylophone.jpg,tire.jpg,dalmatian.jpg,football.jpg,skateboard.jpg,hulahoop.jpg,sausage.jpg,hammerheadshark.jpg,waterfall.jpg,spear02.jpg,,,,,,,1,1,7,,,,,.\resources\ceilingfan01.jpg,,,1,,,,,,,,,1,,,,,,,,,346.7511073799993,None,None,346.7511073799993,None,,,,,,,339.76821680000285,342.5184920000029,339.76821680000285,342.5184920000029,342.2518541000027,None,0.14756559999659657,0.29757100000279024,0.44710989999293815,0.597097699996084,0.7470805000048131,0.8804139999992913,1.0304016000009142,1.1804040999995777,,,,,,,342.75137680000626,None,342.75137680000626,None,343.95130730001256,None,343.95130730001256,None,left,1.740531400006148,343.95130730001256,None,345.73450750000484,None,345.73450750000484,None,left,0.9893723999994108,345.73450750000484,None,,,Alex,001,2021_Mar_17_1403,AB_pic,2020.2.10,60.00096001393897,
AB,lag1,1,4,5,0.12000799999999995,0.02,0.2599999999999998,ramp,,,,,0,12,12,12,,,,,,,skateboard.jpg,bluecheese.jpg,porcupine.jpg,hammerheadshark.jpg,pirateflag.jpg,sandcastle.jpg,hulahoop.jpg,dragonfly01.jpg,spear02.jpg,dandelion.jpg,steeringwheel.jpg,safe.jpg,toad.jpg,tire.jpg,statue.jpg,christmastree.jpg,waterfall.jpg,,,,,,,0,0,7,,,,,.\resources\pirateflag.jpg,,,1,,,,,,,,,1,,,,,,,,,352.60072308000383,None,None,352.60072308000383,None,,,,,,,346.76778249999916,349.5180316000042,346.76778249999916,349.5180316000042,349.2513495000021,None,0.14792459999443963,0.281243599994923,0.43079679999209475,0.564138699992327,0.7141131999960635,0.847412399991299,0.9807575999875553,1.130749099989771,,,,,,,349.75091470000916,None,349.75091470000916,None,350.9008393000113,None,350.9008393000113,None,right,1.0469987999967998,350.9008393000113,None,351.9841071000119,None,351.9841071000119,None,right,0.5877354999975068,351.9841071000119,None,,,Alex,001,2021_Mar_17_1403,AB_pic,2020.2.10,60.00096001393897,
AB,lag7,7,5,12,0.11334199999999994,0.02,0.2399999999999998,ramp,,,,,0,13,13,13,,,,,,,safe.jpg,lip.jpg,sandcastle.jpg,spear02.jpg,pirateflag.jpg,tarantula.jpg,hammerheadshark.jpg,steeringwheel.jpg,jellybean.jpg,volleyball.jpg,ceilingfan01.jpg,dalmatian.jpg,toad.jpg,christmastree.jpg,tire.jpg,skateboard.jpg,windshieldwiper02.jpg,,,,,,,0,0,14,,,,,.\resources\dalmatian.jpg,,,0,,,,,,,,,1,,,,,,,,,361.05016768000644,None,None,361.05016768000644,None,,,,,,,352.61739650000527,355.3676417000097,352.61739650000527,355.3676417000097,355.10055850000936,None,0.14844239999365527,0.2812680999923032,0.4150540999980876,0.5483880999963731,0.6812360999902012,0.8145794000010937,0.9479155000008177,1.0812012999958824,1.2145584999962011,1.3478851999971084,1.4812288999964949,1.6145848000014666,1.7479408999934094,1.8812362999888137,355.6005354000081,None,355.6005354000081,None,357.6337698999996,None,357.6337698999996,None,left,3.0021085000043968,357.6337698999996,None,360.683529300004,None,360.683529300004,None,right,0.33630849998735357,360.683529300004,None,2.0145317999995314,,Alex,001,2021_Mar_17_1403,AB_pic,2020.2.10,60.00096001393897,
AB,lag1,1,3,4,0.10667599999999994,0.02,0.2199999999999998,ramp,,,,,0,14,14,14,,,,,,,spear02.jpg,toad.jpg,windshieldwiper02.jpg,dragonfly01.jpg,callbell.jpg,lip.jpg,ceilingfan01.jpg,bluecheese.jpg,dandelion.jpg,sausage.jpg,pirateflag.jpg,flag.jpg,porcupine.jpg,xylophone.jpg,volleyball.jpg,statue.jpg,tire.jpg,,,,,,,0,0,6,,,,,.\resources\dragonfly01.jpg,,,1,,,,,,,,,0,,,,,,,,,368.13305068000193,None,None,368.13305068000193,None,,,,,,,361.0668435000116,363.81709789999877,361.0668435000116,363.81709789999877,363.5504362000065,None,0.13121930000488646,0.264489200009848,0.3811510000086855,0.5144721000106074,0.6478142000123626,0.7644628000125522,0.897794000004069,,,,,,,,364.0605618000118,None,364.0605618000118,None,364.96658800001023,None,364.96658800001023,None,right,2.75733060001221,364.96658800001023,None,367.76639600000635,None,367.76639600000635,None,left,0.34949890000279993,367.76639600000635,None,,,Alex,001,2021_Mar_17_1403,AB_pic,2020.2.10,60.00096001393897,
AB,lag6,6,5,11,0.1,0.02,0.2,main,,,,,0,15,15,15,,,,,,,hammerheadshark.jpg,dalmatian.jpg,porcupine.jpg,waterfall.jpg,windshieldwiper02.jpg,safe.jpg,jellybean.jpg,sandcastle.jpg,christmastree.jpg,dandelion.jpg,bluecheese.jpg,dragonfly01.jpg,pirateflag.jpg,statue.jpg,lip.jpg,callbell.jpg,volleyball.jpg,,,,,,,1,0,13,,,,,.\resources\bluecheese.jpg,,,1,,,,,,,,,1,,,,,,,,,374.76592498000684,None,None,374.76592498000684,None,,,,,,,368.14973410000675,370.89994860001025,368.14973410000675,370.89994860001025,370.63331130000006,None,0.13059790000261273,0.24724919999425765,0.3639033999934327,0.4806005999998888,0.6139250999985961,0.7305864999943879,0.8472659999970347,0.9639256999944337,1.080624499998521,1.2139316999964649,1.330566499993438,1.4472156999981962,1.5638290000060806,1.680524499999592,371.1328497000068,None,371.1328497000068,None,372.8327305999992,None,372.8327305999992,None,left,1.5550341999914963,372.8327305999992,None,374.4326232000021,None,374.4326232000021,None,right,0.3072297000035178,374.4326232000021,None,,,Alex,001,2021_Mar_17_1403,AB_pic,2020.2.10,60.00096001393897,
AB,lag1,1,5,6,0.1,0.02,0.2,main,,,,,0,16,16,16,,,,,,,volleyball.jpg,dalmatian.jpg,callbell.jpg,xylophone.jpg,dragonfly01.jpg,sandcastle.jpg,bluecheese.jpg,flag.jpg,spear02.jpg,tire.jpg,jellybean.jpg,horseshoe.jpg,ceilingfan01.jpg,waterfall.jpg,windshieldwiper02.jpg,pirateflag.jpg,dandelion.jpg,,,,,,,0,0,8,,,,,.\resources\sandcastle.jpg,,,1,,,,,,,,,0,,,,,,,,,382.3154334800071,None,None,382.3154334800071,None,,,,,,,374.78260740000405,377.5328687000001,374.78260740000405,377.5328687000001,377.2662146000075,None,0.13092949999554548,0.24717370000144,0.36384439999528695,0.4804868999926839,0.6138389999978244,0.7304842000012286,0.8471201000065776,0.9637765999941621,1.0804596999951173,,,,,,377.7657412000117,None,377.7657412000117,None,378.8656716000114,None,378.8656716000114,None,right,1.2900894000049448,378.8656716000114,None,380.19894970000314,None,380.19894970000314,None,left,2.092935900000157,380.19894970000314,None,,,Alex,001,2021_Mar_17_1403,AB_pic,2020.2.10,60.00096001393897,
AB,lag5,5,3,8,0.1,0.02,0.2,main,,,,,0,17,17,17,,,,,,,flag.jpg,hulahoop.jpg,tarantula.jpg,waterfall.jpg,volleyball.jpg,dandelion.jpg,jellybean.jpg,statue.jpg,callbell.jpg,christmastree.jpg,porcupine.jpg,windshieldwiper02.jpg,dalmatian.jpg,spear02.jpg,steeringwheel.jpg,sausage.jpg,toad.jpg,,,,,,,0,0,10,,,,,.\resources\statue.jpg,,,1,,,,,,,,,1,,,,,,,,,387.9817617800014,None,None,387.9817617800014,None,,,,,,,382.33213120000437,385.08191870000155,382.33213120000437,385.08191870000155,384.8152643000067,None,0.13069249999534804,0.24735130000044592,0.3640350000059698,0.4807059000013396,0.61445530000492,0.7311206000013044,0.8473500999971293,0.9640056000062032,1.0806561000063084,1.2139815999980783,1.3306499000027543,,,,385.31523940000625,None,385.31523940000625,None,386.66514680000546,None,386.66514680000546,None,right,0.8986550999979954,386.66514680000546,None,387.59839070000453,None,387.59839070000453,None,right,0.36551229999167845,387.59839070000453,None,,,Alex,001,2021_Mar_17_1403,AB_pic,2020.2.10,60.00096001393897,
AB,lag3,3,4,7,0.1,0.02,0.2,main,,,,,0,18,18,18,,,,,,,christmastree.jpg,skateboard.jpg,lip.jpg,callbell.jpg,tire.jpg,hammerheadshark.jpg,jellybean.jpg,waterfall.jpg,porcupine.jpg,dandelion.jpg,toad.jpg,football.jpg,hulahoop.jpg,flag.jpg,dalmatian.jpg,sausage.jpg,bluecheese.jpg,,,,,,,1,0,9,,,,,.\resources\jellybean.jpg,,,1,,,,,,,,,1,,,,,,,,,394.7979434800087,None,None,394.7979434800087,None,,,,,,,387.99838920000184,390.7486465000111,387.99838920000184,390.7486465000111,390.4820310000068,None,0.13087870000163093,0.24756770000385586,0.36419459999888204,0.48083720001159236,0.6141735000128392,0.7308266000036383,0.847480500000529,0.9641436000092654,1.080829200000153,1.2141803000122309,,,,,390.9815640000015,None,390.9815640000015,None,392.21495760000835,None,392.21495760000835,None,left,2.1488681999908295,392.21495760000835,None,394.3979674000002,None,394.3979674000002,None,right,0.37394220000714995,394.3979674000002,None,,,Alex,001,2021_Mar_17_1403,AB_pic,2020.2.10,60.00096001393897,
AB,lag2,2,5,7,0.1,0.02,0.2,main,,,,,0,19,19,19,,,,,,,windshieldwiper02.jpg,dragonfly01.jpg,steeringwheel.jpg,dalmatian.jpg,callbell.jpg,sausage.jpg,xylophone.jpg,ceilingfan01.jpg,statue.jpg,dandelion.jpg,jellybean.jpg,hammerheadshark.jpg,football.jpg,spear02.jpg,hulahoop.jpg,pirateflag.jpg,porcupine.jpg,,,,,,,0,0,9,,,,,.\resources\xylophone.jpg,,,1,,,,,,,,,0,,,,,,,,,401.7975172800085,None,None,401.7975172800085,None,,,,,,,394.8146054000099,397.56484220000857,394.8146054000099,397.56484220000857,397.298243600002,None,0.13066640000033658,0.24736330000450835,0.3639824999991106,0.4806814000039594,0.6140466000069864,0.7306296000024304,0.8472884000075283,0.9639454999996815,1.0806845000042813,1.2140302000043448,,,,,397.7976956000057,None,397.7976956000057,None,399.0310434999992,None,399.0310434999992,None,right,1.09274860000005,399.0310434999992,None,400.1642988000094,None,400.1642988000094,None,left,1.607486599998083,400.1642988000094,None,,,Alex,001,2021_Mar_17_1403,AB_pic,2020.2.10,60.00096001393897,
AB,lag4,4,3,7,0.1,0.02,0.2,main,,,,,0,20,20,20,,,,,,,statue.jpg,xylophone.jpg,flag.jpg,bluecheese.jpg,lip.jpg,hammerheadshark.jpg,pirateflag.jpg,safe.jpg,sausage.jpg,waterfall.jpg,toad.jpg,porcupine.jpg,dragonfly01.jpg,tarantula.jpg,horseshoe.jpg,spear02.jpg,sandcastle.jpg,,,,,,,1,0,9,,,,,.\resources\pirateflag.jpg,,,1,,,,,,,,,1,,,,,,,,,408.63032848001023,None,None,408.63032848001023,None,,,,,,,401.8142043000116,404.56402780000644,401.8142043000116,404.56402780000644,404.297370100001,None,0.13168239999504294,0.248331099995994,0.3649628999992274,0.48166580000543036,0.614951800002018,0.731626699998742,0.8483125000057044,0.9649030000000494,1.0816047999978764,1.2148597000050358,,,,,404.7973333000118,None,404.7973333000118,None,406.03059350000694,None,406.03059350000694,None,left,2.165177999995649,406.03059350000694,None,408.2303899000108,None,408.2303899000108,None,right,0.3733442999946419,408.2303899000108,None,,,Alex,001,2021_Mar_17_1403,AB_pic,2020.2.10,60.00096001393897,
AB,lag7,7,5,12,0.1,0.02,0.2,main,,,,,0,21,21,21,,,,,,,waterfall.jpg,spear02.jpg,bluecheese.jpg,tire.jpg,safe.jpg,porcupine.jpg,dragonfly01.jpg,horseshoe.jpg,christmastree.jpg,windshieldwiper02.jpg,toad.jpg,flag.jpg,statue.jpg,jellybean.jpg,callbell.jpg,sausage.jpg,hammerheadshark.jpg,,,,,,,0,1,14,,,,,.\resources\flag.jpg,,,1,,,,,,,,,0,,,,,,,,,414.92992788000413,None,None,414.92992788000413,None,,,,,,,408.6469962000119,411.39728640000976,408.6469962000119,411.39728640000976,411.13020820000384,None,0.1305794999934733,0.2472814000066137,0.36437389999628067,0.48103640000044834,0.6139020999980858,0.730558099996415,0.847233899999992,0.963872899999842,1.080516500005615,1.2138452000071993,1.3304816000018036,1.4471573000046192,1.563859700007015,1.6804753000033088,411.6472814000008,None,411.6472814000008,None,413.46339000000444,None,413.46339000000444,None,right,1.0204859000077704,413.46339000000444,None,414.5299822000088,None,414.5299822000088,None,right,0.37777679999999236,414.5299822000088,None,1.8138023000065004,,Alex,001,2021_Mar_17_1403,AB_pic,2020.2.10,60.00096001393897,
AB,lag6,6,5,11,0.1,0.02,0.2,main,,,,,0,22,22,22,,,,,,,bluecheese.jpg,pirateflag.jpg,hulahoop.jpg,volleyball.jpg,toad.jpg,porcupine.jpg,christmastree.jpg,steeringwheel.jpg,lip.jpg,dragonfly01.jpg,ceilingfan01.jpg,skateboard.jpg,tarantula.jpg,waterfall.jpg,spear02.jpg,tire.jpg,xylophone.jpg,,,,,,,0,0,13,,,,,.\resources\ceilingfan01.jpg,,,1,,,,,,,,,0,,,,,,,,,424.64597428000855,None,None,424.64597428000855,None,,,,,,,414.9466348999995,417.69687490000797,414.9466348999995,417.69687490000797,417.43026100000134,None,0.1316662000026554,0.24790630000643432,0.3645766999979969,0.48118370000156574,0.6145461999985855,0.73115289999987,0.8478508999978658,0.9645268000022043,1.0811635999998543,1.21446570000262,1.3311613999976544,1.447816400002921,1.5644767000048887,1.6811152000009315,417.92975670000305,None,417.92975670000305,None,419.62964040000224,None,419.62964040000224,None,right,3.5741293000028236,419.62964040000224,None,423.2460645000101,None,423.2460645000101,None,left,1.3736958000081358,423.2460645000101,None,,,Alex,001,2021_Mar_17_1403,AB_pic,2020.2.10,60.00096001393897,
AB,lag7,7,5,12,0.1,0.02,0.2,main,,,,,0,23,23,23,,,,,,,windshieldwiper02.jpg,xylophone.jpg,tire.jpg,jellybean.jpg,volleyball.jpg,steeringwheel.jpg,spear02.jpg,dalmatian.jpg,callbell.jpg,porcupine.jpg,lip.jpg,hulahoop.jpg,football.jpg,bluecheese.jpg,horseshoe.jpg,christmastree.jpg,toad.jpg,,,,,,,0,0,14,,,,,.\resources\hulahoop.jpg,,,1,,,,,,,,,1,,,,,,,,,430.36226888001113,None,None,430.36226888001113,None,,,,,,,424.6626576999988,427.4128975000058,424.6626576999988,427.4128975000058,427.14625830001023,None,0.13145450000592973,0.24749100000190083,0.3641343000053894,0.48077000000921544,0.6141002000076696,0.7307795000087935,0.8474462000012863,0.9641083000024082,1.0807539000088582,1.2140767000091728,1.3307391999987885,1.4473715000058291,1.5641986000118777,1.6807073000090895,427.64579100000265,None,427.64579100000265,None,429.47903130001214,None,429.47903130001214,None,right,0.5247423999971943,429.47903130001214,None,430.04559910000535,None,430.04559910000535,None,right,0.29416249999485444,430.04559910000535,None,1.8140362000121968,,Alex,001,2021_Mar_17_1403,AB_pic,2020.2.10,60.00096001393897,
AB,lag5,5,3,8,0.1,0.02,0.2,main,,,,,0,24,24,24,,,,,,,sausage.jpg,spear02.jpg,christmastree.jpg,bluecheese.jpg,porcupine.jpg,hammerheadshark.jpg,jellybean.jpg,volleyball.jpg,skateboard.jpg,pirateflag.jpg,callbell.jpg,dandelion.jpg,ceilingfan01.jpg,lip.jpg,toad.jpg,dragonfly01.jpg,waterfall.jpg,,,,,,,1,0,10,,,,,.\resources\volleyball.jpg,,,1,,,,,,,,,1,,,,,,,,,436.71185878000836,None,None,436.71185878000836,None,,,,,,,430.378947300007,433.1287463000044,430.378947300007,433.1287463000044,432.86210910000955,None,0.130788800001028,0.24745579999580514,0.3641066999989562,0.48076059999584686,0.6141051000013249,0.7307786000019405,0.8474544999917271,0.9641054999956395,1.0807257999986177,1.2140157999965595,1.3306796999968356,,,,433.3620835000038,None,433.3620835000038,None,434.7119510000048,None,434.7119510000048,None,left,1.5958203000045614,434.7119510000048,None,436.345204199999,None,436.345204199999,None,right,0.3465501999889966,436.345204199999,None,,,Alex,001,2021_Mar_17_1403,AB_pic,2020.2.10,60.00096001393897,
AB,lag3,3,3,6,0.1,0.02,0.2,main,,,,,0,25,25,25,,,,,,,waterfall.jpg,horseshoe.jpg,hammerheadshark.jpg,volleyball.jpg,sandcastle.jpg,dragonfly01.jpg,flag.jpg,football.jpg,ceilingfan01.jpg,christmastree.jpg,statue.jpg,callbell.jpg,spear02.jpg,lip.jpg,pirateflag.jpg,xylophone.jpg,porcupine.jpg,,,,,,,1,0,8,,,,,.\resources\dragonfly01.jpg,,,1,,,,,,,,,1,,,,,,,,,443.6947060800027,None,None,443.6947060800027,None,,,,,,,436.72852330000023,439.47876220000035,436.72852330000023,439.47876220000035,439.21207180000783,None,0.13161899999249727,0.24831710000580642,0.3649437999993097,0.4811846999946283,0.6145186000067042,0.7312038999953074,0.8478087999974377,0.9645056000008481,1.0811776000045938,,,,,,439.71165130000736,None,439.71165130000736,None,440.81159180001123,None,440.81159180001123,None,left,2.536354100011522,440.81159180001123,None,443.39473980000184,None,443.39473980000184,None,right,0.2811132000060752,443.39473980000184,None,,,Alex,001,2021_Mar_17_1403,AB_pic,2020.2.10,60.00096001393897,
AB,lag2,2,3,5,0.1,0.02,0.2,main,,,,,0,26,26,26,,,,,,,christmastree.jpg,skateboard.jpg,sausage.jpg,toad.jpg,hulahoop.jpg,hammerheadshark.jpg,safe.jpg,porcupine.jpg,dalmatian.jpg,waterfall.jpg,horseshoe.jpg,lip.jpg,football.jpg,dragonfly01.jpg,pirateflag.jpg,tarantula.jpg,statue.jpg,,,,,,,1,0,7,,,,,.\resources\hulahoop.jpg,,,1,,,,,,,,,1,,,,,,,,,449.8609693800114,None,None,449.8609693800114,None,,,,,,,443.7113611000095,446.4616462000122,443.7113611000095,446.4616462000122,446.19502400000056,None,0.13150339999992866,0.24814989999867976,0.36481550001190044,0.4810730000026524,0.6143774000083795,0.7310322999983327,0.8476514000067255,0.9643279000010807,,,,,,,446.69453700000304,None,446.69453700000304,None,447.677798100005,None,447.677798100005,None,left,1.8699773999978788,447.677798100005,None,449.5943399000098,None,449.5943399000098,None,right,0.24943729999358766,449.5943399000098,None,,,Alex,001,2021_Mar_17_1403,AB_pic,2020.2.10,60.00096001393897,
AB,lag1,1,5,6,0.1,0.02,0.2,main,,,,,0,27,27,27,,,,,,,bluecheese.jpg,porcupine.jpg,football.jpg,skateboard.jpg,toad.jpg,sandcastle.jpg,christmastree.jpg,waterfall.jpg,tarantula.jpg,statue.jpg,ceilingfan01.jpg,xylophone.jpg,hammerheadshark.jpg,dandelion.jpg,flag.jpg,lip.jpg,spear02.jpg,,,,,,,0,0,8,,,,,.\resources\sandcastle.jpg,,,1,,,,,,,,,1,,,,,,,,,458.42710218001014,None,None,458.42710218001014,None,,,,,,,449.87765030001174,452.6279577000096,449.87765030001174,452.6279577000096,452.3612961000035,None,0.13133800000650808,0.2479961000062758,0.36470240000926424,0.4813323999987915,0.6146415000112029,0.7312953000073321,0.8479537000093842,0.9646174000081373,1.0812698000081582,,,,,,452.8608086000022,None,452.8608086000022,None,453.96074840000074,None,453.96074840000074,None,right,1.9710550000017975,453.96074840000074,None,455.97725419999915,None,455.97725419999915,None,right,2.418518700011191,455.97725419999915,None,,,Alex,001,2021_Mar_17_1403,AB_pic,2020.2.10,60.00096001393897,
AB,lag4,4,5,9,0.1,0.02,0.2,main,,,,,0,28,28,28,,,,,,,tire.jpg,tarantula.jpg,skateboard.jpg,toad.jpg,steeringwheel.jpg,lip.jpg,bluecheese.jpg,waterfall.jpg,safe.jpg,pirateflag.jpg,dragonfly01.jpg,ceilingfan01.jpg,jellybean.jpg,xylophone.jpg,flag.jpg,football.jpg,volleyball.jpg,,,,,,,0,0,11,,,,,.\resources\safe.jpg,,,1,,,,,,,,,1,,,,,,,,,470.65960708000205,None,None,470.65960708000205,None,,,,,,,458.4437498000043,461.19404130001203,458.4437498000043,461.19404130001203,460.92688740001176,None,0.13153779999993276,0.24816779998946004,0.3648259999899892,0.4815954999940004,0.6143517999880714,0.7310687999997754,0.8483532999962335,0.9644042999861995,1.0809942999912892,1.214308999988134,1.3309893999976339,1.4476472999958787,,,461.4268868000072,None,461.4268868000072,None,462.89345909999975,None,462.89345909999975,None,right,1.2303151999949478,462.89345909999975,None,464.16003980000096,None,464.16003980000096,None,right,6.475680899995496,464.16003980000096,None,,,Alex,001,2021_Mar_17_1403,AB_pic,2020.2.10,60.00096001393897,
AB,lag3,3,4,7,0.1,0.02,0.2,main,,,,,0,29,29,29,,,,,,,steeringwheel.jpg,skateboard.jpg,christmastree.jpg,tire.jpg,ceilingfan01.jpg,football.jpg,callbell.jpg,dalmatian.jpg,dragonfly01.jpg,porcupine.jpg,tarantula.jpg,horseshoe.jpg,xylophone.jpg,sandcastle.jpg,volleyball.jpg,waterfall.jpg,safe.jpg,,,,,,,1,0,9,,,,,.\resources\callbell.jpg,,,1,,,,,,,,,0,,,,,,,,,476.85918718000323,None,None,476.85918718000323,None,,,,,,,470.6762724,473.42653209999844,470.6762724,473.42653209999844,473.1598837000056,None,0.13168530000257306,0.24832779999997,0.36512700001185294,0.48171480000019073,0.6145522000006167,0.7312354000023333,0.847861100002774,0.9645108000113396,1.0811744000093313,1.2144897000107449,,,,,473.65942200001155,None,473.65942200001155,None,474.8926650000067,None,474.8926650000067,None,left,1.239093000011053,474.8926650000067,None,476.17591980000725,None,476.17591980000725,None,left,0.6678957999974955,476.17591980000725,None,,,Alex,001,2021_Mar_17_1403,AB_pic,2020.2.10,60.00096001393897,
AB,lag1,1,4,5,0.1,0.02,0.2,main,,,,,0,30,30,30,,,,,,,steeringwheel.jpg,ceilingfan01.jpg,dandelion.jpg,statue.jpg,hammerheadshark.jpg,xylophone.jpg,callbell.jpg,toad.jpg,lip.jpg,porcupine.jpg,waterfall.jpg,jellybean.jpg,safe.jpg,tarantula.jpg,volleyball.jpg,dragonfly01.jpg,bluecheese.jpg,,,,,,,1,0,7,,,,,.\resources\hammerheadshark.jpg,,,1,,,,,,,,,1,,,,,,,,,482.54215868000904,None,None,482.54215868000904,None,,,,,,,476.87587540000095,479.6261177000124,476.87587540000095,479.6261177000124,479.3594659000082,None,0.13154229999054223,0.248150599989458,0.36431429999356624,0.4809470999898622,0.6142690999986371,0.7309317000035662,0.8475901999918278,0.9642454999993788,,,,,,,479.8590077000117,None,479.8590077000117,None,480.8422741000104,None,480.8422741000104,None,left,1.3777599999884842,480.8422741000104,None,482.25888320000377,None,482.25888320000377,None,right,0.2568697999959113,482.25888320000377,None,,,Alex,001,2021_Mar_17_1403,AB_pic,2020.2.10,60.00096001393897,
AB,lag4,4,5,9,0.1,0.02,0.2,main,,,,,0,31,31,31,,,,,,,callbell.jpg,lip.jpg,sausage.jpg,waterfall.jpg,horseshoe.jpg,toad.jpg,volleyball.jpg,ceilingfan01.jpg,steeringwheel.jpg,hammerheadshark.jpg,bluecheese.jpg,pirateflag.jpg,sandcastle.jpg,xylophone.jpg,flag.jpg,tire.jpg,porcupine.jpg,,,,,,,0,0,11,,,,,.\resources\steeringwheel.jpg,,,1,,,,,,,,,1,,,,,,,,,488.4084116800092,None,None,488.4084116800092,None,,,,,,,482.55882270001166,485.30908890000137,482.55882270001166,485.30908890000137,485.041996400003,None,0.13153860000602435,0.24819209999986924,0.36486750000040047,0.4815406999987317,0.6143765000015264,0.7310242000094149,0.8477255000034347,0.9643637999979546,1.0810204000008525,1.2143528000015067,1.3310059000068577,1.447607699999935,,,485.5419649000105,None,485.5419649000105,None,487.0085154000117,None,487.0085154000117,None,right,1.0192137000121875,487.0085154000117,None,488.0751323000004,None,488.0751323000004,None,right,0.31263069999113213,488.0751323000004,None,,,Alex,001,2021_Mar_17_1403,AB_pic,2020.2.10,60.00096001393897,
AB,lag6,6,3,9,0.1,0.02,0.2,main,,,,,0,32,32,32,,,,,,,hammerheadshark.jpg,pirateflag.jpg,jellybean.jpg,callbell.jpg,christmastree.jpg,dragonfly01.jpg,steeringwheel.jpg,sausage.jpg,hulahoop.jpg,flag.jpg,porcupine.jpg,safe.jpg,tarantula.jpg,xylophone.jpg,spear02.jpg,sandcastle.jpg,skateboard.jpg,,,,,,,0,0,11,,,,,.\resources\hulahoop.jpg,,,1,,,,,,,,,1,,,,,,,,,493.7747557800045,None,None,493.7747557800045,None,,,,,,,488.425118500003,491.17531930000405,488.425118500003,491.17531930000405,490.908279700001,None,0.131500400006189,0.24820119999640156,0.36482170000090264,0.481624499996542,0.6143586999969557,0.7314572000032058,0.8476745000079973,0.9643729000090389,1.0809603999950923,1.2143534000060754,1.330987199995434,1.4476570999977412,,,491.40821270000015,None,491.40821270000015,None,492.87481610001123,None,492.87481610001123,None,right,0.5449617999984184,492.87481610001123,None,493.45814610000525,None,493.45814610000525,None,right,0.2977155999979004,493.45814610000525,None,,,Alex,001,2021_Mar_17_1403,AB_pic,2020.2.10,60.00096001393897,
AB,lag2,2,3,5,0.1,0.02,0.2,main,,,,,0,33,33,33,,,,,,,dragonfly01.jpg,dalmatian.jpg,waterfall.jpg,football.jpg,skateboard.jpg,ceilingfan01.jpg,sausage.jpg,steeringwheel.jpg,christmastree.jpg,spear02.jpg,callbell.jpg,safe.jpg,statue.jpg,tire.jpg,xylophone.jpg,volleyball.jpg,dandelion.jpg,,,,,,,0,1,7,,,,,.\resources\skateboard.jpg,,,1,,,,,,,,,0,,,,,,,,,499.8909974800059,None,None,499.8909974800059,None,,,,,,,493.7914208000002,496.541698800007,493.7914208000002,496.541698800007,496.27502000000095,None,0.13157069998851512,0.24822369999310467,0.3644167999882484,0.4810502999898745,0.6143649000005098,0.7310492999968119,0.847719400000642,0.9643440999934683,,,,,,,496.77455510001164,None,496.77455510001164,None,497.7577911000117,None,497.7577911000117,None,right,1.0940080000000307,497.7577911000117,None,498.8910812000104,None,498.8910812000104,None,right,0.9766692999983206,498.8910812000104,None,,,Alex,001,2021_Mar_17_1403,AB_pic,2020.2.10,60.00096001393897,
AB,lag5,5,4,9,0.1,0.02,0.2,main,,,,,0,34,34,34,,,,,,,dragonfly01.jpg,dalmatian.jpg,hulahoop.jpg,sandcastle.jpg,steeringwheel.jpg,tire.jpg,callbell.jpg,bluecheese.jpg,windshieldwiper02.jpg,xylophone.jpg,hammerheadshark.jpg,lip.jpg,pirateflag.jpg,flag.jpg,horseshoe.jpg,toad.jpg,ceilingfan01.jpg,,,,,,,0,0,11,,,,,.\resources\windshieldwiper02.jpg,,,0,,,,,,,,,0,,,,,,,,,507.22385698001165,None,None,507.22385698001165,None,,,,,,,499.90766050000093,502.65750750000007,499.90766050000093,502.65750750000007,502.39087930000096,None,0.13154049999138806,0.24817289999919012,0.36482560000149533,0.4814707999903476,0.6148087000037776,0.7314602999977069,0.8481300999992527,0.9647831000038423,1.081432799997856,1.2148005999915767,1.3314220000029309,1.4480745999899227,,,502.8908158000122,None,502.8908158000122,None,504.35741940001026,None,504.35741940001026,None,left,2.462288000009721,504.35741940001026,None,506.8572235000029,None,506.8572235000029,None,left,0.3385505999904126,506.8572235000029,None,,,Alex,001,2021_Mar_17_1403,AB_pic,2020.2.10,60.00096001393897,
AB,lag7,7,5,12,0.1,0.02,0.2,main,,,,,0,35,35,35,,,,,,,bluecheese.jpg,callbell.jpg,dandelion.jpg,steeringwheel.jpg,tarantula.jpg,volleyball.jpg,statue.jpg,lip.jpg,dragonfly01.jpg,safe.jpg,football.jpg,windshieldwiper02.jpg,hulahoop.jpg,pirateflag.jpg,sandcastle.jpg,sausage.jpg,dalmatian.jpg,,,,,,,0,0,14,,,,,.\resources\windshieldwiper02.jpg,,,1,,,,,,,,,1,,,,,,,,,513.0901617799988,None,None,513.0901617799988,None,,,,,,,507.2405429000064,509.9907721000054,507.2405429000064,509.9907721000054,509.7241541000112,None,0.13118839998787735,0.24786439999297727,0.36451089999172837,0.4811667999892961,0.6145762999949511,0.7311405999935232,0.8478082999936305,0.9644942999875639,1.0811246999946889,1.2144543999893358,1.3310998999950243,1.4477802999899723,1.564483999987715,1.6810950999933993,510.2236990000092,None,510.2236990000092,None,512.0568781000038,None,512.0568781000038,None,right,0.6588401000044541,512.0568781000038,None,512.756830600003,None,512.756830600003,None,right,0.3031746999913594,512.756830600003,None,1.8144132000015816,,Alex,001,2021_Mar_17_1403,AB_pic,2020.2.10,60.00096001393897,
AB,lag5,5,5,10,0.1,0.02,0.2,main,,,,,0,36,36,36,,,,,,,skateboard.jpg,dalmatian.jpg,flag.jpg,volleyball.jpg,hulahoop.jpg,xylophone.jpg,sandcastle.jpg,christmastree.jpg,dandelion.jpg,porcupine.jpg,tire.jpg,windshieldwiper02.jpg,ceilingfan01.jpg,callbell.jpg,waterfall.jpg,toad.jpg,bluecheese.jpg,,,,,,,0,0,12,,,,,.\resources\porcupine.jpg,,,1,,,,,,,,,1,,,,,,,,,518.5231057799989,None,None,518.5231057799989,None,,,,,,,513.1068051000038,515.8570674000075,513.1068051000038,515.8570674000075,515.5904015999986,None,0.13048770000750665,0.2470924999943236,0.36379780000424944,0.4804290000029141,0.6137903000053484,0.7304554000002099,0.847074999997858,0.963736699995934,1.0803745000011986,1.213689299998805,1.330381199994008,1.4470143000071403,1.56368890000158,,516.1070455000008,None,516.1070455000008,None,517.6731704000122,None,517.6731704000122,None,right,0.49862800000119023,517.6731704000122,None,518.2066410000116,None,518.2066410000116,None,right,0.28527380000741687,518.2066410000116,None,,,Alex,001,2021_Mar_17_1403,AB_pic,2020.2.10,60.00096001393897,
AB,lag7,7,3,10,0.1,0.02,0.2,main,,,,,0,37,37,37,,,,,,,safe.jpg,xylophone.jpg,statue.jpg,ceilingfan01.jpg,toad.jpg,flag.jpg,windshieldwiper02.jpg,pirateflag.jpg,christmastree.jpg,porcupine.jpg,sandcastle.jpg,sausage.jpg,lip.jpg,dragonfly01.jpg,jellybean.jpg,callbell.jpg,steeringwheel.jpg,,,,,,,0,0,12,,,,,.\resources\porcupine.jpg,,,1,,,,,,,,,1,,,,,,,,,523.9894588800104,None,None,523.9894588800104,None,,,,,,,518.5397845000116,521.2896197000082,518.5397845000116,521.2896197000082,521.0229452000058,None,0.1310520999977598,0.24770859999989625,0.36442310000711586,0.4810239999933401,0.61441979999654,0.7310199000057764,0.8476716000004672,0.9643931000027806,1.080994699994335,1.2143692999961786,1.3309544999938225,1.447630399998161,1.564304900006391,,521.5229128000065,None,521.5229128000065,None,523.1061438000033,None,523.1061438000033,None,right,0.553641599995899,523.1061438000033,None,523.7061047000025,None,523.7061047000025,None,right,0.2656760999961989,523.7061047000025,None,,,Alex,001,2021_Mar_17_1403,AB_pic,2020.2.10,60.00096001393897,
AB,lag4,4,3,7,0.1,0.02,0.2,main,,,,,0,38,38,38,,,,,,,statue.jpg,sausage.jpg,lip.jpg,dalmatian.jpg,christmastree.jpg,horseshoe.jpg,ceilingfan01.jpg,spear02.jpg,waterfall.jpg,porcupine.jpg,bluecheese.jpg,hammerheadshark.jpg,football.jpg,sandcastle.jpg,hulahoop.jpg,dandelion.jpg,jellybean.jpg,,,,,,,0,0,9,,,,,.\resources\ceilingfan01.jpg,,,1,,,,,,,,,1,,,,,,,,,529.155764280005,None,None,529.155764280005,None,,,,,,,524.0060861000093,526.7563365000096,524.0060861000093,526.7563365000096,526.4896868000069,None,0.1300574999913806,0.24630879999313038,0.3629415999894263,0.4963293999899179,0.612939999991795,0.729580299986992,0.846269299989217,0.9628977999964263,1.096288499989896,1.2129961999889929,,,,,527.006324300004,None,527.006324300004,None,528.2224731000024,None,528.2224731000024,None,right,0.5814656000002287,528.2224731000024,None,528.8390989000036,None,528.8390989000036,None,right,0.29271569999400526,528.8390989000036,None,,,Alex,001,2021_Mar_17_1403,AB_pic,2020.2.10,60.00096001393897,
AB,lag3,3,5,8,0.1,0.02,0.2,main,,,,,0,39,39,39,,,,,,,flag.jpg,jellybean.jpg,toad.jpg,steeringwheel.jpg,skateboard.jpg,ceilingfan01.jpg,hammerheadshark.jpg,windshieldwiper02.jpg,sandcastle.jpg,pirateflag.jpg,lip.jpg,statue.jpg,sausage.jpg,dragonfly01.jpg,dalmatian.jpg,porcupine.jpg,spear02.jpg,,,,,,,0,0,10,,,,,.\resources\windshieldwiper02.jpg,,,1,,,,,,,,,1,,,,,,,,,534.5387538800002,None,None,534.5387538800002,None,,,,,,,529.1724114000099,531.9222309000033,529.1724114000099,531.9222309000033,531.6555743000063,None,0.13088690000586212,0.24760170000081416,0.36421420000260696,0.48087590000068303,0.614194599998882,0.7308545999985654,0.847544200005359,0.9641735000041081,1.0808746999973664,1.2141546000057133,1.3308799999940675,,,,532.1555472000036,None,532.1555472000036,None,533.5054609000072,None,533.5054609000072,None,right,0.6743532999971649,533.5054609000072,None,534.2222585999989,None,534.2222585999989,None,right,0.29352079999807756,534.2222585999989,None,,,Alex,001,2021_Mar_17_1403,AB_pic,2020.2.10,60.00096001393897,
AB,lag2,2,4,6,0.1,0.02,0.2,main,,,,,0,40,40,40,,,,,,,volleyball.jpg,xylophone.jpg,christmastree.jpg,hulahoop.jpg,spear02.jpg,jellybean.jpg,horseshoe.jpg,tire.jpg,safe.jpg,statue.jpg,waterfall.jpg,lip.jpg,windshieldwiper02.jpg,hammerheadshark.jpg,callbell.jpg,sandcastle.jpg,pirateflag.jpg,,,,,,,0,1,8,,,,,.\resources\jellybean.jpg,,,1,,,,,,,,,1,,,,,,,,,540.1383784799997,None,None,540.1383784799997,None,,,,,,,534.5553962000122,537.3052083000075,534.5553962000122,537.3052083000075,537.0385574000102,None,0.13007800000195857,0.24674469999445137,0.3633955999976024,0.48005149999517016,0.6133666999958223,0.7300415000063367,0.8467597999988357,0.9633457000018097,1.0800337999971816,,,,,,537.55522010001,None,537.55522010001,None,538.638462700008,None,538.638462700008,None,right,1.1253605000092648,538.638462700008,None,539.8050470000017,None,539.8050470000017,None,left,0.3107681999972556,539.8050470000017,None,,,Alex,001,2021_Mar_17_1403,AB_pic,2020.2.10,60.00096001393897,
AB,lag1,1,4,5,0.1,0.02,0.2,main,,,,,0,41,41,41,,,,,,,jellybean.jpg,lip.jpg,sausage.jpg,bluecheese.jpg,skateboard.jpg,pirateflag.jpg,hammerheadshark.jpg,dragonfly01.jpg,horseshoe.jpg,tire.jpg,sandcastle.jpg,dandelion.jpg,toad.jpg,tarantula.jpg,volleyball.jpg,spear02.jpg,football.jpg,,,,,,,0,0,7,,,,,.\resources\skateboard.jpg,,,1,,,,,,,,,1,,,,,,,,,545.6546595800042,None,None,545.6546595800042,None,,,,,,,540.1550279000076,542.9052815000032,540.1550279000076,542.9052815000032,542.6386690000072,None,0.13006189999578055,0.2467154999903869,0.3634516000020085,0.48003720000269823,0.613441800000146,0.7300195999996504,0.8467510999907972,0.9633331999939401,,,,,,,543.1548016000015,None,543.1548016000015,None,544.1214283000008,None,544.1214283000008,None,right,0.97829620000266,544.1214283000008,None,545.1380301000027,None,545.1380301000027,None,right,0.4896932000119705,545.1380301000027,None,,,Alex,001,2021_Mar_17_1403,AB_pic,2020.2.10,60.00096001393897,
AB,lag6,6,5,11,0.1,0.02,0.2,main,,,,,0,42,42,42,,,,,,,skateboard.jpg,lip.jpg,xylophone.jpg,pirateflag.jpg,steeringwheel.jpg,statue.jpg,tarantula.jpg,football.jpg,sausage.jpg,jellybean.jpg,safe.jpg,callbell.jpg,ceilingfan01.jpg,dalmatian.jpg,horseshoe.jpg,hammerheadshark.jpg,christmastree.jpg,,,,,,,0,0,13,,,,,.\resources\safe.jpg,,,1,,,,,,,,,1,,,,,,,,,551.3543019799996,None,None,551.3543019799996,None,,,,,,,545.6713209000009,548.4211630000063,545.6713209000009,548.4211630000063,548.1545143000112,None,0.13159829999494832,0.24818140000570565,0.36488249999820255,0.48157849999552127,0.6148518999980297,0.7315638000000035,0.8481627000001026,0.9648294999933569,1.081486600000062,1.2147872000059579,1.3315193000016734,1.4481252999976277,1.564806900001713,1.6814621999947121,548.6545196000079,None,548.6545196000079,None,550.3543778000021,None,550.3543778000021,None,right,0.6495068000076571,550.3543778000021,None,551.0376340000075,None,551.0376340000075,None,right,0.294213100001798,551.0376340000075,None,,,Alex,001,2021_Mar_17_1403,AB_pic,2020.2.10,60.00096001393897,
AB,lag5,5,5,10,0.1,0.02,0.2,main,,,,,0,43,43,43,,,,,,,skateboard.jpg,steeringwheel.jpg,dragonfly01.jpg,football.jpg,toad.jpg,porcupine.jpg,safe.jpg,ceilingfan01.jpg,tarantula.jpg,statue.jpg,hulahoop.jpg,dandelion.jpg,lip.jpg,christmastree.jpg,dalmatian.jpg,sandcastle.jpg,horseshoe.jpg,,,,,,,1,0,12,,,,,.\resources\statue.jpg,,,1,,,,,,,,,1,,,,,,,,,558.4704849800052,None,None,558.4704849800052,None,,,,,,,551.3709469000023,554.1207627000113,551.3709469000023,554.1207627000113,553.8541160000023,None,0.13101079998887144,0.24766649999946821,0.3643199999933131,0.48100349999731407,0.6142990999942413,0.7309845999989193,0.8476476999931037,0.9643015999899944,1.0809425999905216,1.2142964999948163,1.3309641999949235,1.4476203999947757,1.5642489999881946,,554.3540814000007,None,554.3540814000007,None,555.9373268000054,None,555.9373268000054,None,left,2.0744055999966804,555.9373268000054,None,558.0538937000092,None,558.0538937000092,None,right,0.38984699999855366,558.0538937000092,None,,,Alex,001,2021_Mar_17_1403,AB_pic,2020.2.10,60.00096001393897,
AB,lag7,7,5,12,0.1,0.02,0.2,main,,,,,0,44,44,44,,,,,,,hammerheadshark.jpg,skateboard.jpg,jellybean.jpg,volleyball.jpg,steeringwheel.jpg,tarantula.jpg,lip.jpg,flag.jpg,safe.jpg,ceilingfan01.jpg,statue.jpg,hulahoop.jpg,xylophone.jpg,dandelion.jpg,sausage.jpg,tire.jpg,toad.jpg,,,,,,,0,0,14,,,,,.\resources\hulahoop.jpg,,,1,,,,,,,,,1,,,,,,,,,564.4700847799992,None,None,564.4700847799992,None,,,,,,,558.4871582000051,561.2370049000019,558.4871582000051,561.2370049000019,560.9703489000094,None,0.13129689999914262,0.2479585999972187,0.36455019999993965,0.48126240000419784,0.6145630999963032,0.7312266999942949,0.8478736999968532,0.9645756999962032,1.0812013999966439,1.2145121000066865,1.3311721999925794,1.4477972000022419,1.5644373999966774,1.681132700003218,561.4703130999987,None,561.4703130999987,None,563.3035343000083,None,563.3035343000083,None,right,0.7801737999980105,563.3035343000083,None,564.1201153000002,None,564.1201153000002,None,right,0.32369969999126624,564.1201153000002,None,1.8144615000055637,,Alex,001,2021_Mar_17_1403,AB_pic,2020.2.10,60.00096001393897,
AB,lag3,3,4,7,0.1,0.02,0.2,main,,,,,0,45,45,45,,,,,,,volleyball.jpg,flag.jpg,dandelion.jpg,bluecheese.jpg,tarantula.jpg,callbell.jpg,waterfall.jpg,xylophone.jpg,football.jpg,sausage.jpg,jellybean.jpg,skateboard.jpg,dragonfly01.jpg,ceilingfan01.jpg,statue.jpg,dalmatian.jpg,horseshoe.jpg,,,,,,,0,0,9,,,,,.\resources\waterfall.jpg,,,1,,,,,,,,,1,,,,,,,,,569.5197743800105,None,None,569.5197743800105,None,,,,,,,564.4867452000035,567.2370142,564.4867452000035,567.2370142,566.9699256000022,None,0.13181049999548122,0.24843619999592192,0.3650933000026271,0.4817468999972334,0.6153229000046849,0.7314499999920372,0.8479354000010062,0.9646237999986624,1.0813119999947958,1.2146184000012,,,,,567.4699352000025,None,567.4699352000025,None,568.7031423000008,None,568.7031423000008,None,right,0.46856799999659415,568.7031423000008,None,569.2033082000125,None,569.2033082000125,None,right,0.29638559999875724,569.2033082000125,None,,,Alex,001,2021_Mar_17_1403,AB_pic,2020.2.10,60.00096001393897,
AB,lag2,2,5,7,0.1,0.02,0.2,main,,,,,0,46,46,46,,,,,,,xylophone.jpg,callbell.jpg,dragonfly01.jpg,toad.jpg,windshieldwiper02.jpg,tarantula.jpg,volleyball.jpg,horseshoe.jpg,spear02.jpg,porcupine.jpg,sausage.jpg,tire.jpg,ceilingfan01.jpg,dalmatian.jpg,christmastree.jpg,waterfall.jpg,skateboard.jpg,,,,,,,0,0,9,,,,,.\resources\volleyball.jpg,,,1,,,,,,,,,1,,,,,,,,,575.0193971800051,None,None,575.0193971800051,None,,,,,,,569.5364692000003,572.2866715000127,569.5364692000003,572.2866715000127,572.0195884999994,None,0.13147920000483282,0.2481928000051994,0.3648444999998901,0.4809092000068631,0.6142621000035433,0.7308725000038976,0.8475469999975758,0.9642049000103725,1.0808622000040486,1.2141917999979341,,,,,572.5195564000023,None,572.5195564000023,None,573.7528209000011,None,573.7528209000011,None,right,0.8508514999994077,573.7528209000011,None,574.6360989000095,None,574.6360989000095,None,right,0.35171999999147374,574.6360989000095,None,,,Alex,001,2021_Mar_17_1403,AB_pic,2020.2.10,60.00096001393897,
AB,lag6,6,5,11,0.1,0.02,0.2,main,,,,,0,47,47,47,,,,,,,waterfall.jpg,toad.jpg,football.jpg,sandcastle.jpg,sausage.jpg,volleyball.jpg,horseshoe.jpg,dalmatian.jpg,lip.jpg,dragonfly01.jpg,safe.jpg,spear02.jpg,jellybean.jpg,steeringwheel.jpg,hulahoop.jpg,hammerheadshark.jpg,flag.jpg,,,,,,,0,1,13,,,,,.\resources\safe.jpg,,,1,,,,,,,,,1,,,,,,,,,581.1689821800115,None,None,581.1689821800115,None,,,,,,,575.0360670000082,577.7862734000082,575.0360670000082,577.7862734000082,577.5196524000057,None,0.13125530000252184,0.2479213000042364,0.36459630000172183,0.48123480001231655,0.6145700000051875,0.7312081000127364,0.8478548000130104,0.9645567000115989,1.0811992000089958,1.2145487000088906,1.3312072000117041,1.4478461000107927,1.5644793000101345,1.6811540000053355,578.0191678000119,None,578.0191678000119,None,579.7190938999993,None,579.7190938999993,None,right,1.0686548999947263,579.7190938999993,None,580.8356792000122,None,580.8356792000122,None,left,0.3040596000064397,580.8356792000122,None,,,Alex,001,2021_Mar_17_1403,AB_pic,2020.2.10,60.00096001393897,
AB,lag1,1,4,5,0.1,0.02,0.2,main,,,,,0,48,48,48,,,,,,,hulahoop.jpg,tire.jpg,windshieldwiper02.jpg,spear02.jpg,steeringwheel.jpg,lip.jpg,sandcastle.jpg,dragonfly01.jpg,dandelion.jpg,skateboard.jpg,porcupine.jpg,dalmatian.jpg,statue.jpg,xylophone.jpg,callbell.jpg,hammerheadshark.jpg,ceilingfan01.jpg,,,,,,,1,0,7,,,,,.\resources\steeringwheel.jpg,,,1,,,,,,,,,1,,,,,,,,,589.1517980799996,None,None,589.1517980799996,None,,,,,,,581.1856947000051,583.9359012000059,581.1856947000051,583.9359012000059,583.6692594000051,None,0.13124640000751242,0.24794669999391772,0.3645350000006147,0.48121070000343025,0.61453989999427,0.7311582999973325,0.8478365000046324,0.9645408000069438,,,,,,,584.1688500000018,None,584.1688500000018,None,585.1520751000062,None,585.1520751000062,None,left,2.859569099993678,585.1520751000062,None,588.0518746000016,None,588.0518746000016,None,right,1.0799258000042755,588.0518746000016,None,,,Alex,001,2021_Mar_17_1403,AB_pic,2020.2.10,60.00096001393897,
AB,lag4,4,3,7,0.1,0.02,0.2,main,,,,,0,49,49,49,,,,,,,flag.jpg,dragonfly01.jpg,spear02.jpg,xylophone.jpg,statue.jpg,skateboard.jpg,dandelion.jpg,windshieldwiper02.jpg,jellybean.jpg,volleyball.jpg,porcupine.jpg,football.jpg,bluecheese.jpg,hammerheadshark.jpg,toad.jpg,tarantula.jpg,hulahoop.jpg,,,,,,,0,0,9,,,,,.\resources\dandelion.jpg,,,1,,,,,,,,,1,,,,,,,,,594.2514537800031,None,None,594.2514537800031,None,,,,,,,589.1684471000044,591.9187187000061,589.1684471000044,591.9187187000061,591.6520892000117,None,0.13134560000617057,0.24795420000737067,0.36467130000528414,0.4812716000014916,0.6146243999974104,0.7312464999995427,0.8479319000034593,0.9645909000100801,1.0812510000105249,1.2145497000019532,,,,,592.1516031000065,None,592.1516031000065,None,593.384853200012,None,593.384853200012,None,right,0.5387667000031797,593.384853200012,None,593.9681306999992,None,593.9681306999992,None,right,0.25957730000664014,593.9681306999992,None,,,Alex,001,2021_Mar_17_1403,AB_pic,2020.2.10,60.00096001393897,
AB,lag3,3,4,7,0.1,0.02,0.2,main,,,,,0,50,50,50,,,,,,,volleyball.jpg,jellybean.jpg,dalmatian.jpg,tire.jpg,hammerheadshark.jpg,christmastree.jpg,bluecheese.jpg,sandcastle.jpg,tarantula.jpg,porcupine.jpg,statue.jpg,waterfall.jpg,skateboard.jpg,flag.jpg,safe.jpg,toad.jpg,dragonfly01.jpg,,,,,,,0,0,9,,,,,.\resources\bluecheese.jpg,,,1,,,,,,,,,1,,,,,,,,,599.5344421799979,None,None,599.5344421799979,None,,,,,,,594.2681633000029,597.0179429999989,594.2681633000029,597.0179429999989,596.751290900007,None,0.13107590000436176,0.2477692999964347,0.3644181999989087,0.48105370000121184,0.613893800007645,0.7306071000057273,0.8476573000079952,0.9639145999972243,1.080546500001219,1.213891599996714,,,,,597.2512634000013,None,597.2512634000013,None,598.4845283000031,None,598.4845283000031,None,right,0.6952593999885721,598.4845283000031,None,599.2179730000062,None,599.2179730000062,None,right,0.289799000005587,599.2179730000062,None,,,Alex,001,2021_Mar_17_1403,AB_pic,2020.2.10,60.00096001393897,
AB,lag7,7,5,12,0.1,0.02,0.2,main,,,,,0,51,51,51,,,,,,,jellybean.jpg,dalmatian.jpg,statue.jpg,volleyball.jpg,hammerheadshark.jpg,porcupine.jpg,dragonfly01.jpg,pirateflag.jpg,windshieldwiper02.jpg,tarantula.jpg,horseshoe.jpg,christmastree.jpg,bluecheese.jpg,xylophone.jpg,safe.jpg,ceilingfan01.jpg,callbell.jpg,,,,,,,0,0,14,,,,,.\resources\christmastree.jpg,,,1,,,,,,,,,1,,,,,,,,,605.9506859800036,None,None,605.9506859800036,None,,,,,,,599.5511177000008,602.3013701000018,599.5511177000008,602.3013701000018,602.0342758000043,None,0.13166099999216385,0.2483120999968378,0.3649627999984659,0.48163099998782855,0.6152385999885155,0.7311735999974189,0.8478283999866107,0.9645248999877367,1.0811944999877596,1.21448879998934,1.3311818999936804,1.4478584999887971,1.5644591999880504,1.6811526999954367,602.5342504,None,602.5342504,None,604.3674636000069,None,604.3674636000069,None,right,1.2044291000056546,604.3674636000069,None,605.6173994000128,None,605.6173994000128,None,right,0.31432499999937136,605.6173994000128,None,1.8144490999984555,,Alex,001,2021_Mar_17_1403,AB_pic,2020.2.10,60.00096001393897,
AB,lag1,1,5,6,0.1,0.02,0.2,main,,,,,0,52,52,52,,,,,,,xylophone.jpg,dragonfly01.jpg,steeringwheel.jpg,sausage.jpg,hammerheadshark.jpg,spear02.jpg,dalmatian.jpg,windshieldwiper02.jpg,dandelion.jpg,toad.jpg,jellybean.jpg,waterfall.jpg,sandcastle.jpg,flag.jpg,safe.jpg,tarantula.jpg,callbell.jpg,,,,,,,0,0,8,,,,,.\resources\spear02.jpg,,,1,,,,,,,,,1,,,,,,,,,611.050342780001,None,None,611.050342780001,None,,,,,,,605.9673558000068,608.7176112000016,605.9673558000068,608.7176112000016,608.4509480000124,None,0.13150550000136718,0.2477056000061566,0.36433660000329837,0.4809815000044182,0.6143535000010161,0.7309757000039099,0.8476518999959808,0.9642899000027683,1.0809690000023693,,,,,,608.9505205000023,None,608.9505205000023,None,610.0504201000003,None,610.0504201000003,None,right,0.689360399992438,610.0504201000003,None,610.7837475999986,None,610.7837475999986,None,right,0.2439684999990277,610.7837475999986,None,,,Alex,001,2021_Mar_17_1403,AB_pic,2020.2.10,60.00096001393897,
AB,lag4,4,4,8,0.1,0.02,0.2,main,,,,,0,53,53,53,,,,,,,statue.jpg,volleyball.jpg,spear02.jpg,windshieldwiper02.jpg,callbell.jpg,tarantula.jpg,hulahoop.jpg,pirateflag.jpg,tire.jpg,xylophone.jpg,skateboard.jpg,ceilingfan01.jpg,safe.jpg,dragonfly01.jpg,waterfall.jpg,horseshoe.jpg,football.jpg,,,,,,,1,0,10,,,,,.\resources\pirateflag.jpg,,,0,,,,,,,,,1,,,,,,,,,618.0498765800018,None,None,618.0498765800018,None,,,,,,,611.0670264000073,613.8172573000047,611.0670264000073,613.8172573000047,613.5506402000028,None,0.13083329999062698,0.24739940000290517,0.3641209999914281,0.48074020000058226,0.6140562999935355,0.7307280999957584,0.8473375999892596,0.9640195999963908,1.0807417999894824,1.2139999999926658,1.3306746000016574,,,,614.0502066000045,None,614.0502066000045,None,615.4000763000076,None,615.4000763000076,None,right,2.1796939999912865,615.4000763000076,None,617.6165907000104,None,617.6165907000104,None,right,0.40317350000259466,617.6165907000104,None,,,Alex,001,2021_Mar_17_1403,AB_pic,2020.2.10,60.00096001393897,
AB,lag6,6,5,11,0.1,0.02,0.2,main,,,,,0,54,54,54,,,,,,,sausage.jpg,safe.jpg,jellybean.jpg,hulahoop.jpg,ceilingfan01.jpg,football.jpg,windshieldwiper02.jpg,horseshoe.jpg,volleyball.jpg,pirateflag.jpg,xylophone.jpg,dandelion.jpg,skateboard.jpg,waterfall.jpg,hammerheadshark.jpg,dragonfly01.jpg,porcupine.jpg,,,,,,,0,0,13,,,,,.\resources\xylophone.jpg,,,1,,,,,,,,,1,,,,,,,,,623.5661882800065,None,None,623.5661882800065,None,,,,,,,618.066557099999,620.8168007000058,618.066557099999,620.8168007000058,620.5501481000101,None,0.13054299999203067,0.2472105999913765,0.3638061999954516,0.4804729000024963,0.6137825999903725,0.730492000002414,0.8471669999998994,0.9638325999985682,1.0804683000023942,1.2138142999901902,1.3304306999925757,1.447096000003512,1.5637934999977006,1.6804265999962809,621.049694100002,None,621.049694100002,None,622.7495856000023,None,622.7495856000023,None,right,0.4620770000037737,622.7495856000023,None,623.2495517000061,None,623.2495517000061,None,right,0.2980673999991268,623.2495517000061,None,,,Alex,001,2021_Mar_17_1403,AB_pic,2020.2.10,60.00096001393897,
AB,lag2,2,4,6,0.1,0.02,0.2,main,,,,,0,55,55,55,,,,,,,hulahoop.jpg,tarantula.jpg,sausage.jpg,dalmatian.jpg,flag.jpg,spear02.jpg,horseshoe.jpg,lip.jpg,pirateflag.jpg,bluecheese.jpg,skateboard.jpg,christmastree.jpg,windshieldwiper02.jpg,volleyball.jpg,football.jpg,ceilingfan01.jpg,toad.jpg,,,,,,,1,1,8,,,,,.\resources\spear02.jpg,,,1,,,,,,,,,1,,,,,,,,,630.4990354800117,None,None,630.4990354800117,None,,,,,,,623.5828607000003,626.333120700001,623.5828607000003,626.333120700001,626.066058700002,None,0.13153980000060983,0.24775209999643266,0.36492269999871496,0.48159270000178367,0.6143971999990754,0.731001499996637,0.8477058999997098,0.9643181999999797,1.0809760999982245,,,,,,626.5659932999988,None,626.5659932999988,None,627.6659375000017,None,627.6659375000017,None,left,1.03370869999344,627.6659375000017,None,628.7325707000127,None,628.7325707000127,None,left,1.7510322000016458,628.7325707000127,None,,,Alex,001,2021_Mar_17_1403,AB_pic,2020.2.10,60.00096001393897,
AB,lag5,5,4,9,0.1,0.02,0.2,main,,,,,0,56,56,56,,,,,,,xylophone.jpg,hammerheadshark.jpg,statue.jpg,safe.jpg,dalmatian.jpg,sandcastle.jpg,tarantula.jpg,skateboard.jpg,ceilingfan01.jpg,callbell.jpg,dragonfly01.jpg,volleyball.jpg,horseshoe.jpg,pirateflag.jpg,sausage.jpg,waterfall.jpg,windshieldwiper02.jpg,,,,,,,0,0,11,,,,,.\resources\ceilingfan01.jpg,,,1,,,,,,,,,1,,,,,,,,,635.882043680003,None,None,635.882043680003,None,,,,,,,630.5157459000038,633.265991799999,630.5157459000038,633.265991799999,632.998900400009,None,0.13091690000146627,0.24763189999794122,0.3642548999923747,0.48092950000136625,0.6146670000016456,0.7309144000028027,0.8475744000024861,0.9642058000026736,1.080892899990431,1.2141904000018258,1.3308874999929685,1.4475279000034789,,,633.4988769000047,None,633.4988769000047,None,634.9655075000046,None,634.9655075000046,None,right,0.5501398999913363,634.9655075000046,None,635.5487502000033,None,635.5487502000033,None,right,0.3028689999919152,635.5487502000033,None,,,Alex,001,2021_Mar_17_1403,AB_pic,2020.2.10,60.00096001393897,
AB,lag2,2,3,5,0.1,0.02,0.2,main,,,,,0,57,57,57,,,,,,,hulahoop.jpg,pirateflag.jpg,skateboard.jpg,waterfall.jpg,statue.jpg,bluecheese.jpg,horseshoe.jpg,football.jpg,xylophone.jpg,hammerheadshark.jpg,porcupine.jpg,dalmatian.jpg,tarantula.jpg,sandcastle.jpg,lip.jpg,steeringwheel.jpg,jellybean.jpg,,,,,,,0,0,7,,,,,.\resources\statue.jpg,,,1,,,,,,,,,1,,,,,,,,,640.6983987800064,None,None,640.6983987800064,None,,,,,,,635.898718299999,638.6490235000092,635.898718299999,638.6490235000092,638.3823294000031,None,0.1316475000057835,0.24826880000182427,0.3644817000022158,0.4812067000020761,0.6144843999936711,0.7311504999961471,0.8478284000011627,0.9644952999951784,,,,,,,638.8818784000032,None,638.8818784000032,None,639.8651128000056,None,639.8651128000056,None,right,0.49863259999256115,639.8651128000056,None,640.3984195000085,None,640.3984195000085,None,right,0.2692756000033114,640.3984195000085,None,,,Alex,001,2021_Mar_17_1403,AB_pic,2020.2.10,60.00096001393897,
AB,lag6,6,5,11,0.1,0.02,0.2,main,,,,,0,58,58,58,,,,,,,jellybean.jpg,horseshoe.jpg,steeringwheel.jpg,christmastree.jpg,lip.jpg,callbell.jpg,sausage.jpg,football.jpg,hulahoop.jpg,sandcastle.jpg,bluecheese.jpg,dalmatian.jpg,toad.jpg,ceilingfan01.jpg,windshieldwiper02.jpg,hammerheadshark.jpg,porcupine.jpg,,,,,,,0,0,13,,,,,.\resources\bluecheese.jpg,,,1,,,,,,,,,1,,,,,,,,,646.1647169000062,None,space,646.1647169000062,None,,,,,,,640.7150671999989,643.4649246000045,640.7150671999989,643.4649246000045,643.1982570000109,None,0.13089220000256319,0.24756609999167267,0.3641600999981165,0.480827399995178,0.6141485999978613,0.7308289999928093,0.8475155999913113,0.9641620000038529,1.080802099997527,1.2140875999903074,1.3307708999927854,1.447454299996025,1.5640562999906251,1.6807406000007177,643.6982389000041,None,643.6982389000041,None,645.3981027000118,None,645.3981027000118,None,right,0.3896422999969218,645.3981027000118,None,645.8314023999992,None,645.8314023999992,None,right,0.2761802000022726,645.8314023999992,None,,33.919114399992395,Alex,001,2021_Mar_17_1403,AB_pic,2020.2.10,60.00096001393897,
AB,lag7,7,4,11,0.1,0.02,0.2,main,,,,,0,59,59,59,,,,,,,volleyball.jpg,windshieldwiper02.jpg,christmastree.jpg,hulahoop.jpg,lip.jpg,ceilingfan01.jpg,pirateflag.jpg,statue.jpg,sandcastle.jpg,hammerheadshark.jpg,callbell.jpg,flag.jpg,xylophone.jpg,tire.jpg,jellybean.jpg,dandelion.jpg,tarantula.jpg,,,,,,,1,1,13,,,,,.\resources\callbell.jpg,,,1,,,,,,,,,0,,,,,,,,,688.928531979998,None,None,688.928531979998,None,,,,,,,680.1290841000009,682.8792813000036,680.1290841000009,682.8792813000036,682.5960240999993,None,0.13176070000918116,0.2484346999990521,0.36507349999737926,0.48177680000662804,0.6150111000024481,0.73169919999782,0.8483243000082439,0.9649960000097053,1.0812495999998646,1.2145906000077957,1.331279899997753,1.44798609999998,1.564556099998299,1.6812291999958688,683.0960640999983,None,683.0960640999983,None,684.7787667000084,None,684.7787667000084,None,left,3.5848480999993626,684.7787667000084,None,688.3952809000039,None,688.3952809000039,None,right,0.5123435999994399,688.3952809000039,None,,,Alex,001,2021_Mar_17_1403,AB_pic,2020.2.10,60.00096001393897,
AB,lag5,5,3,8,0.1,0.02,0.2,main,,,,,0,60,60,60,,,,,,,sausage.jpg,dalmatian.jpg,christmastree.jpg,bluecheese.jpg,safe.jpg,windshieldwiper02.jpg,hulahoop.jpg,skateboard.jpg,sandcastle.jpg,football.jpg,porcupine.jpg,volleyball.jpg,tire.jpg,dandelion.jpg,tarantula.jpg,flag.jpg,pirateflag.jpg,,,,,,,0,0,10,,,,,.\resources\skateboard.jpg,,,1,,,,,,,,,1,,,,,,,,,694.3281966800001,None,None,694.3281966800001,None,,,,,,,688.9452113000007,691.6955139000056,688.9452113000007,691.6955139000056,691.4288680000027,None,0.13121920000412501,0.24785320000955835,0.3645128000061959,0.4811716000112938,0.6145304000092437,0.7311566999997012,0.8478597000066657,0.9644669000117574,1.0811462999990908,1.2144484000018565,1.3311152000096627,,,,691.9283932000108,None,691.9283932000108,None,693.2782688000007,None,693.2782688000007,None,right,0.6213463000021875,693.2782688000007,None,693.9449310000055,None,693.9449310000055,None,right,0.3546533000044292,693.9449310000055,None,,,Alex,001,2021_Mar_17_1403,AB_pic,2020.2.10,60.00096001393897,
AB,lag3,3,5,8,0.1,0.02,0.2,main,,,,,0,61,61,61,,,,,,,hammerheadshark.jpg,windshieldwiper02.jpg,dandelion.jpg,ceilingfan01.jpg,jellybean.jpg,horseshoe.jpg,porcupine.jpg,volleyball.jpg,safe.jpg,xylophone.jpg,skateboard.jpg,tire.jpg,toad.jpg,flag.jpg,pirateflag.jpg,spear02.jpg,waterfall.jpg,,,,,,,0,1,10,,,,,.\resources\volleyball.jpg,,,0,,,,,,,,,0,,,,,,,,,700.0778015800039,None,None,700.0778015800039,None,,,,,,,694.344874900009,697.0946805999993,694.344874900009,697.0946805999993,696.8280035000062,None,0.13072539999848232,0.24738849999266677,0.3640337999968324,0.4806938999972772,0.6144454999885056,0.7311429999972461,0.8473622999881627,0.9639959999913117,1.0806657999928575,1.213997200000449,1.3306611000007251,,,,697.3280109000043,None,697.3280109000043,None,698.6779130000068,None,698.6779130000068,None,left,0.9977073000045493,698.6779130000068,None,699.7111861000012,None,699.7111861000012,None,right,0.34047260000079405,699.7111861000012,None,,,Alex,001,2021_Mar_17_1403,AB_pic,2020.2.10,60.00096001393897,
AB,lag4,4,5,9,0.1,0.02,0.2,main,,,,,0,62,62,62,,,,,,,football.jpg,dragonfly01.jpg,hulahoop.jpg,hammerheadshark.jpg,windshieldwiper02.jpg,horseshoe.jpg,jellybean.jpg,pirateflag.jpg,skateboard.jpg,porcupine.jpg,lip.jpg,flag.jpg,sausage.jpg,xylophone.jpg,bluecheese.jpg,christmastree.jpg,statue.jpg,,,,,,,0,1,11,,,,,.\resources\skateboard.jpg,,,1,,,,,,,,,1,,,,,,,,,706.69405978,None,None,706.69405978,None,,,,,,,700.0944884000055,702.8447254000057,700.0944884000055,702.8447254000057,702.5780800000066,None,0.13076810000347905,0.24736729999131057,0.36411470000166446,0.4807091999973636,0.6140591000003042,0.7307089999958407,0.847343000001274,0.964014600001974,1.0806650000013178,1.2139731999923242,1.3306535000010626,1.4473162999929627,,,703.0776257000107,None,703.0776257000107,None,704.5441778000095,None,704.5441778000095,None,right,1.083632599998964,704.5441778000095,None,705.6607995000086,None,705.6607995000086,None,left,1.0148753999965265,705.6607995000086,None,,,Alex,001,2021_Mar_17_1403,AB_pic,2020.2.10,60.00096001393897,
AB,lag1,1,3,4,0.1,0.02,0.2,main,,,,,0,63,63,63,,,,,,,christmastree.jpg,safe.jpg,pirateflag.jpg,lip.jpg,hulahoop.jpg,waterfall.jpg,ceilingfan01.jpg,jellybean.jpg,statue.jpg,horseshoe.jpg,xylophone.jpg,bluecheese.jpg,hammerheadshark.jpg,toad.jpg,windshieldwiper02.jpg,steeringwheel.jpg,volleyball.jpg,,,,,,,0,0,6,,,,,.\resources\lip.jpg,,,1,,,,,,,,,0,,,,,,,,,712.1270174800026,None,None,712.1270174800026,None,,,,,,,706.7107280000055,709.4609599000105,706.7107280000055,709.4609599000105,709.1943688000028,None,0.13103509999928065,0.24773129999812227,0.3643623999960255,0.4806021999975201,0.6139066000032471,0.7305420999909984,0.8471916999988025,,,,,,,,709.6938617000123,None,709.6938617000123,None,710.5604678000091,None,710.5604678000091,None,right,1.1551952000008896,710.5604678000091,None,711.7604360000114,None,711.7604360000114,None,left,0.3472182999976212,711.7604360000114,None,,,Alex,001,2021_Mar_17_1403,AB_pic,2020.2.10,60.00096001393897,
AB,lag5,5,4,9,0.1,0.02,0.2,main,,,,,0,64,64,64,,,,,,,tarantula.jpg,christmastree.jpg,dragonfly01.jpg,waterfall.jpg,jellybean.jpg,xylophone.jpg,sandcastle.jpg,callbell.jpg,statue.jpg,dandelion.jpg,spear02.jpg,bluecheese.jpg,toad.jpg,horseshoe.jpg,porcupine.jpg,skateboard.jpg,tire.jpg,,,,,,,1,0,11,,,,,.\resources\statue.jpg,,,0,,,,,,,,,1,,,,,,,,,718.8265698800111,None,None,718.8265698800111,None,,,,,,,712.1436878000095,714.8939410000021,712.1436878000095,714.8939410000021,714.6272841000027,None,0.13101730000926182,0.24772490000759717,0.36437160000787117,0.4810915000125533,0.6143126000097254,0.7309638000006089,0.847647100003087,0.9643171000061557,1.0810418000037316,1.2142730000050506,1.33095129999856,1.4476532000117004,,,715.1268495000113,None,715.1268495000113,None,716.5934181000048,None,716.5934181000048,None,right,1.8102304000058211,716.5934181000048,None,718.4432759000047,None,718.4432759000047,None,right,0.3523633000004338,718.4432759000047,None,,,Alex,001,2021_Mar_17_1403,AB_pic,2020.2.10,60.00096001393897,
AB,lag4,4,3,7,0.1,0.02,0.2,main,,,,,0,65,65,65,,,,,,,hulahoop.jpg,spear02.jpg,bluecheese.jpg,sausage.jpg,volleyball.jpg,statue.jpg,hammerheadshark.jpg,callbell.jpg,xylophone.jpg,safe.jpg,football.jpg,pirateflag.jpg,jellybean.jpg,christmastree.jpg,porcupine.jpg,lip.jpg,tarantula.jpg,,,,,,,0,0,9,,,,,.\resources\hammerheadshark.jpg,,,1,,,,,,,,,1,,,,,,,,,723.8929191799995,None,None,723.8929191799995,None,,,,,,,718.8432568999997,721.5935058000032,718.8432568999997,721.5935058000032,721.3268504000007,None,0.13087500000256114,0.2475447000033455,0.3637594000028912,0.4804206999979215,0.6137763000006089,0.7304017999995267,0.8470800000068266,0.9637211000081152,1.0803990999993403,1.213721699998132,,,,,721.8263780999987,None,721.8263780999987,None,723.0596446000127,None,723.0596446000127,None,right,0.4959803999954602,723.0596446000127,None,723.5929551000008,None,723.5929551000008,None,right,0.2747075999941444,723.5929551000008,None,,,Alex,001,2021_Mar_17_1403,AB_pic,2020.2.10,60.00096001393897,
AB,lag7,7,3,10,0.1,0.02,0.2,main,,,,,0,66,66,66,,,,,,,pirateflag.jpg,jellybean.jpg,dandelion.jpg,tarantula.jpg,volleyball.jpg,callbell.jpg,hammerheadshark.jpg,hulahoop.jpg,steeringwheel.jpg,flag.jpg,ceilingfan01.jpg,waterfall.jpg,spear02.jpg,sausage.jpg,windshieldwiper02.jpg,toad.jpg,lip.jpg,,,,,,,1,0,12,,,,,.\resources\flag.jpg,,,1,,,,,,,,,1,,,,,,,,,731.0590926800083,None,None,731.0590926800083,None,,,,,,,723.9096193000005,726.6598403000098,723.9096193000005,726.6598403000098,726.3931814000098,None,0.13078640001185704,0.24747390000266023,0.36410620000970084,0.48077870000270195,0.6140894000127446,0.730747200010228,0.8474430000060238,0.9640608000045177,1.0807405000086874,1.2140489000012167,1.3307093000039458,1.4473568000103114,1.5640271000011126,,726.8927269000123,None,726.8927269000123,None,728.4759472000005,None,728.4759472000005,None,left,1.0956218999926932,728.4759472000005,None,729.6091738000105,None,729.6091738000105,None,right,1.4184505000011995,729.6091738000105,None,,,Alex,001,2021_Mar_17_1403,AB_pic,2020.2.10,60.00096001393897,
AB,lag2,2,3,5,0.1,0.02,0.2,main,,,,,0,67,67,67,,,,,,,tire.jpg,xylophone.jpg,windshieldwiper02.jpg,porcupine.jpg,christmastree.jpg,hulahoop.jpg,callbell.jpg,sandcastle.jpg,dragonfly01.jpg,spear02.jpg,statue.jpg,dalmatian.jpg,pirateflag.jpg,bluecheese.jpg,toad.jpg,skateboard.jpg,tarantula.jpg,,,,,,,1,1,7,,,,,.\resources\christmastree.jpg,,,0,,,,,,,,,1,,,,,,,,,737.1086936799999,None,None,737.1086936799999,None,,,,,,,731.0757831000083,733.8260197000054,731.0757831000083,733.8260197000054,733.5593728000094,None,0.1311520000017481,0.24779229999694508,0.36448530000052415,0.48113179999927524,0.614430599991465,0.7311508999991929,0.8477470999932848,0.9644166999933077,,,,,,,734.0589218000096,None,734.0589218000096,None,735.0421798000025,None,735.0421798000025,None,right,1.6736095999949612,735.0421798000025,None,736.7587765000062,None,736.7587765000062,None,left,0.33289990000776015,736.7587765000062,None,,,Alex,001,2021_Mar_17_1403,AB_pic,2020.2.10,60.00096001393897,
AB,lag6,6,4,10,0.1,0.02,0.2,main,,,,,0,68,68,68,,,,,,,christmastree.jpg,tarantula.jpg,hammerheadshark.jpg,steeringwheel.jpg,porcupine.jpg,football.jpg,xylophone.jpg,horseshoe.jpg,sausage.jpg,sandcastle.jpg,waterfall.jpg,windshieldwiper02.jpg,lip.jpg,skateboard.jpg,jellybean.jpg,statue.jpg,toad.jpg,,,,,,,0,0,12,,,,,.\resources\sandcastle.jpg,,,1,,,,,,,,,1,,,,,,,,,742.4916599800068,None,None,742.4916599800068,None,,,,,,,737.1253889000072,739.8756714000046,737.1253889000072,739.8756714000046,739.6090218000027,None,0.1304322000069078,0.24701940000522882,0.3637248000013642,0.4803832000034163,0.6137690000032308,0.730328500008909,0.8470209000079194,0.963681599998381,1.0803455999994185,1.2136553000018466,1.3303103000071133,1.4469799000071362,1.5636389999999665,,740.1256625000096,None,740.1256625000096,None,741.6917889000033,None,741.6917889000033,None,right,0.44785919999412727,741.6917889000033,None,742.1750930000126,None,742.1750930000126,None,right,0.2924185000010766,742.1750930000126,None,,,Alex,001,2021_Mar_17_1403,AB_pic,2020.2.10,60.00096001393897,
AB,lag1,1,4,5,0.1,0.02,0.2,main,,,,,0,69,69,69,,,,,,,toad.jpg,sandcastle.jpg,dandelion.jpg,hulahoop.jpg,skateboard.jpg,safe.jpg,lip.jpg,hammerheadshark.jpg,jellybean.jpg,horseshoe.jpg,christmastree.jpg,xylophone.jpg,dragonfly01.jpg,tire.jpg,bluecheese.jpg,pirateflag.jpg,ceilingfan01.jpg,,,,,,,0,0,7,,,,,.\resources\skateboard.jpg,,,1,,,,,,,,,1,,,,,,,,,747.6580173800045,None,None,747.6580173800045,None,,,,,,,742.5083849000075,745.2586152000003,742.5083849000075,745.2586152000003,744.9915194000059,None,0.13118770001165103,0.24788980001176242,0.36453290001372807,0.4811929000134114,0.6149638000060804,0.731145400000969,0.8478277000103844,0.9644922000006773,,,,,,,745.4915209000028,None,745.4915209000028,None,746.4747646000033,None,746.4747646000033,None,right,0.8487410000088857,746.4747646000033,None,747.3580504999991,None,747.3580504999991,None,right,0.2775247999961721,747.3580504999991,None,,,Alex,001,2021_Mar_17_1403,AB_pic,2020.2.10,60.00096001393897,
AB,lag3,3,5,8,0.1,0.02,0.2,main,,,,,0,70,70,70,,,,,,,lip.jpg,bluecheese.jpg,football.jpg,xylophone.jpg,dragonfly01.jpg,sandcastle.jpg,safe.jpg,pirateflag.jpg,spear02.jpg,volleyball.jpg,tire.jpg,christmastree.jpg,flag.jpg,porcupine.jpg,dalmatian.jpg,hulahoop.jpg,skateboard.jpg,,,,,,,0,1,10,,,,,.\resources\pirateflag.jpg,,,1,,,,,,,,,0,,,,,,,,,753.3909598800107,None,None,753.3909598800107,None,,,,,,,747.6746817000094,750.4249397000094,747.6746817000094,750.4249397000094,750.1583180000016,None,0.13172710000071675,0.2483663000020897,0.36458439999842085,0.4812882999976864,0.6145793000032427,0.7312713999999687,0.8478891999984626,0.9646064999978989,1.081232299999101,1.214544800008298,1.331202100001974,,,,750.6578231000021,None,750.6578231000021,None,752.007761300003,None,752.007761300003,None,right,0.8518758999998681,752.007761300003,None,752.9077369000006,None,752.9077369000006,None,right,0.45590980000270065,752.9077369000006,None,,,Alex,001,2021_Mar_17_1403,AB_pic,2020.2.10,60.00096001393897,
AB,lag4,4,3,7,0.1,0.02,0.2,main,,,,,0,71,71,71,,,,,,,steeringwheel.jpg,pirateflag.jpg,skateboard.jpg,volleyball.jpg,sandcastle.jpg,safe.jpg,flag.jpg,waterfall.jpg,toad.jpg,dalmatian.jpg,statue.jpg,dragonfly01.jpg,dandelion.jpg,spear02.jpg,sausage.jpg,christmastree.jpg,jellybean.jpg,,,,,,,0,1,9,,,,,.\resources\flag.jpg,,,1,,,,,,,,,1,,,,,,,,,758.8239083800014,None,None,758.8239083800014,None,,,,,,,753.4076438000047,756.1578990000125,753.4076438000047,756.1578990000125,755.8908114000078,None,0.13093030000163708,0.24770009999338072,0.36443879999569617,0.48112649998802226,0.6142360999947414,0.7308885999955237,0.8471553999988828,0.9637949000025401,1.0803978999902029,1.2137314999999944,,,,,756.3907718000119,None,756.3907718000119,None,757.6239994000061,None,757.6239994000061,None,right,0.8195338000077754,757.6239994000061,None,758.4906435000012,None,758.4906435000012,None,left,0.3129177999944659,758.4906435000012,None,,,Alex,001,2021_Mar_17_1403,AB_pic,2020.2.10,60.00096001393897,
AB,lag1,1,3,4,0.1,0.02,0.2,main,,,,,0,72,72,72,,,,,,,dragonfly01.jpg,tarantula.jpg,hulahoop.jpg,lip.jpg,tire.jpg,ceilingfan01.jpg,bluecheese.jpg,spear02.jpg,sandcastle.jpg,pirateflag.jpg,christmastree.jpg,porcupine.jpg,jellybean.jpg,volleyball.jpg,hammerheadshark.jpg,safe.jpg,dandelion.jpg,,,,,,,0,0,6,,,,,.\resources\lip.jpg,,,1,,,,,,,,,1,,,,,,,,,763.9736090800012,None,None,763.9736090800012,None,,,,,,,758.840595200003,761.5908675000101,758.840595200003,761.5908675000101,761.3242213000049,None,0.13087499998800922,0.2475545999914175,0.36375729998690076,0.48042059999716,0.6137408999929903,0.7303946999891195,0.8470521999988705,,,,,,,,761.8237495000067,None,761.8237495000067,None,762.6903658000083,None,762.6903658000083,None,right,0.9051794000115478,762.6903658000083,None,763.6403146000084,None,763.6403146000084,None,right,0.30719979999412317,763.6403146000084,None,,,Alex,001,2021_Mar_17_1403,AB_pic,2020.2.10,60.00096001393897,
AB,lag2,2,3,5,0.1,0.02,0.2,main,,,,,0,73,73,73,,,,,,,ceilingfan01.jpg,toad.jpg,flag.jpg,horseshoe.jpg,christmastree.jpg,jellybean.jpg,tarantula.jpg,spear02.jpg,sandcastle.jpg,porcupine.jpg,dalmatian.jpg,football.jpg,waterfall.jpg,sausage.jpg,pirateflag.jpg,safe.jpg,tire.jpg,,,,,,,0,0,7,,,,,.\resources\christmastree.jpg,,,1,,,,,,,,,1,,,,,,,,,768.7566016799989,None,None,768.7566016799989,None,,,,,,,763.9902717000077,766.7404943000001,763.9902717000077,766.7404943000001,766.4738399000053,None,0.13101949999690987,0.24730940000154078,0.36397049999504816,0.48063039999397006,0.6139460999984294,0.7306047000020044,0.8472257999965223,0.9639262999990024,,,,,,,766.9733815000072,None,766.9733815000072,None,767.9566818000021,None,767.9566818000021,None,right,0.44685089999984484,767.9566818000021,None,768.4399816000077,None,768.4399816000077,None,right,0.29968849998840597,768.4399816000077,None,,,Alex,001,2021_Mar_17_1403,AB_pic,2020.2.10,60.00096001393897,
AB,lag5,5,5,10,0.1,0.02,0.2,main,,,,,0,74,74,74,,,,,,,football.jpg,flag.jpg,spear02.jpg,sausage.jpg,tire.jpg,toad.jpg,porcupine.jpg,windshieldwiper02.jpg,steeringwheel.jpg,statue.jpg,ceilingfan01.jpg,dalmatian.jpg,horseshoe.jpg,lip.jpg,jellybean.jpg,volleyball.jpg,waterfall.jpg,,,,,,,0,0,12,,,,,.\resources\statue.jpg,,,1,,,,,,,,,1,,,,,,,,,774.0562643800091,None,None,774.0562643800091,None,,,,,,,768.7732805999985,771.5235288000113,768.7732805999985,771.5235288000113,771.2569154000084,None,0.13086189999012277,0.24752479999733623,0.36457799999334384,0.4808061999938218,0.614116800003103,0.7307820999994874,0.8474293999897782,0.9641030999919167,1.0807582999987062,1.2140855999896303,1.3307422999932896,1.4474365999922156,1.5640559000021312,,771.7564270000003,None,771.7564270000003,None,773.339668200002,None,773.339668200002,None,right,0.3838512000074843,773.339668200002,None,773.7562957000046,None,773.7562957000046,None,right,0.27122500000405125,773.7562957000046,None,,,Alex,001,2021_Mar_17_1403,AB_pic,2020.2.10,60.00096001393897,
AB,lag6,6,4,10,0.1,0.02,0.2,main,,,,,0,75,75,75,,,,,,,porcupine.jpg,ceilingfan01.jpg,hammerheadshark.jpg,tire.jpg,pirateflag.jpg,lip.jpg,football.jpg,sausage.jpg,safe.jpg,dalmatian.jpg,callbell.jpg,skateboard.jpg,hulahoop.jpg,dragonfly01.jpg,sandcastle.jpg,bluecheese.jpg,spear02.jpg,,,,,,,0,0,12,,,,,.\resources\dalmatian.jpg,,,1,,,,,,,,,1,,,,,,,,,779.4058880800018,None,None,779.4058880800018,None,,,,,,,774.0729248999996,776.8232108000084,774.0729248999996,776.8232108000084,776.5565226000035,None,0.1309736000112025,0.2476306000025943,0.3643068000092171,0.48096430000441615,0.6142870000039693,0.730942900001537,0.8476007999997819,0.964264500013087,1.0809384000021964,1.2142510000121547,1.3309461000026204,1.4476051000092411,1.5643398000102025,,777.0560707000113,None,777.0560707000113,None,778.6393472000054,None,778.6393472000054,None,right,0.4361276999989059,778.6393472000054,None,779.1226425000059,None,779.1226425000059,None,right,0.2568518000043696,779.1226425000059,None,,,Alex,001,2021_Mar_17_1403,AB_pic,2020.2.10,60.00096001393897,
AB,lag7,7,3,10,0.1,0.02,0.2,main,,,,,0,76,76,76,,,,,,,dalmatian.jpg,hulahoop.jpg,dragonfly01.jpg,tire.jpg,skateboard.jpg,sausage.jpg,statue.jpg,safe.jpg,toad.jpg,dandelion.jpg,pirateflag.jpg,steeringwheel.jpg,callbell.jpg,flag.jpg,porcupine.jpg,football.jpg,bluecheese.jpg,,,,,,,0,0,12,,,,,.\resources\dandelion.jpg,,,1,,,,,,,,,1,,,,,,,,,784.7222484800019,None,None,784.7222484800019,None,,,,,,,779.4225879000005,782.1724801000091,779.4225879000005,782.1724801000091,781.905756600012,None,0.130852699992829,0.2475135999993654,0.364168799991603,0.4808284000027925,0.6142197000008309,0.7308068999991519,0.8474810999905458,0.96421379999083,1.080808699989575,1.2141124999907333,1.3307723999896552,1.4474556999921333,1.5640911999944365,,782.4057219000097,None,782.4057219000097,None,783.9889544000034,None,783.9889544000034,None,right,0.39869320001162123,783.9889544000034,None,784.4222261000104,None,784.4222261000104,None,right,0.2693373999936739,784.4222261000104,None,,,Alex,001,2021_Mar_17_1403,AB_pic,2020.2.10,60.00096001393897,
AB,lag3,3,4,7,0.1,0.02,0.2,main,,,,,0,77,77,77,,,,,,,spear02.jpg,callbell.jpg,xylophone.jpg,steeringwheel.jpg,bluecheese.jpg,porcupine.jpg,ceilingfan01.jpg,dandelion.jpg,sandcastle.jpg,christmastree.jpg,hammerheadshark.jpg,pirateflag.jpg,jellybean.jpg,dragonfly01.jpg,football.jpg,safe.jpg,lip.jpg,,,,,,,0,0,9,,,,,.\resources\ceilingfan01.jpg,,,1,,,,,,,,,1,,,,,,,,,789.7052488800124,None,None,789.7052488800124,None,,,,,,,784.738900100012,787.4887444000051,784.738900100012,787.4887444000051,787.2221377000096,None,0.13017709999985527,0.2468834000028437,0.3634643999976106,0.48038310000265483,0.6134493999998085,0.7301139000046533,0.8467694999999367,0.963427499998943,1.0800866999925347,1.2134106000012252,,,,,787.7387302999996,None,787.7387302999996,None,788.9553161000076,None,788.9553161000076,None,right,0.4402561000024434,788.9553161000076,None,789.4385923000082,None,789.4385923000082,None,right,0.24490930000320077,789.4385923000082,None,,,Alex,001,2021_Mar_17_1403,AB_pic,2020.2.10,60.00096001393897,
AB,lag4,4,4,8,0.1,0.02,0.2,main,,,,,0,78,78,78,,,,,,,pirateflag.jpg,ceilingfan01.jpg,xylophone.jpg,flag.jpg,toad.jpg,callbell.jpg,lip.jpg,statue.jpg,windshieldwiper02.jpg,volleyball.jpg,safe.jpg,spear02.jpg,hulahoop.jpg,football.jpg,sandcastle.jpg,tire.jpg,skateboard.jpg,,,,,,,0,0,10,,,,,.\resources\statue.jpg,,,1,,,,,,,,,1,,,,,,,,,794.738248980009,None,None,794.738248980009,None,,,,,,,789.7219044000085,792.4717682000046,789.7219044000085,792.4717682000046,792.2050974000013,None,0.1310282000049483,0.24768000000040047,0.36440540000330657,0.48099170000932645,0.6144005000096513,0.730984100009664,0.8476271000108682,0.9643590000050608,1.0809562000067672,1.214266900002258,1.3309279000095557,,,,792.7050434000121,None,792.7050434000121,None,794.0549536000035,None,794.0549536000035,None,right,0.34862190000421833,794.0549536000035,None,794.4383065000002,None,794.4383065000002,None,right,0.2693617000040831,794.4383065000002,None,,,Alex,001,2021_Mar_17_1403,AB_pic,2020.2.10,60.00096001393897,
AB,lag5,5,3,8,0.1,0.02,0.2,main,,,,,0,79,79,79,,,,,,,tarantula.jpg,sausage.jpg,skateboard.jpg,flag.jpg,statue.jpg,waterfall.jpg,windshieldwiper02.jpg,toad.jpg,porcupine.jpg,lip.jpg,safe.jpg,football.jpg,jellybean.jpg,christmastree.jpg,volleyball.jpg,hulahoop.jpg,bluecheese.jpg,,,,,,,1,0,10,,,,,.\resources\toad.jpg,,,1,,,,,,,,,1,,,,,,,,,802.8043980800009,None,None,802.8043980800009,None,,,,,,,794.7549125000078,797.5047263000015,794.7549125000078,797.5047263000015,797.2380803999986,None,0.13154089999443386,0.2481612999981735,0.3647830999980215,0.48145690000092145,0.6147936000052141,0.7314975000044797,0.848116499997559,0.9647369000012986,1.0815106999943964,1.2147247999964748,1.331388299993705,,,,797.7380455000093,None,797.7380455000093,None,799.0879578000022,None,799.0879578000022,None,left,3.307732199988095,799.0879578000022,None,802.4377353000018,None,802.4377353000018,None,right,0.34987140000157524,802.4377353000018,None,,,Alex,001,2021_Mar_17_1403,AB_pic,2020.2.10,60.00096001393897,
AB,lag6,6,3,9,0.1,0.02,0.2,main,,,,,0,80,80,80,,,,,,,jellybean.jpg,dalmatian.jpg,bluecheese.jpg,hulahoop.jpg,waterfall.jpg,dandelion.jpg,statue.jpg,lip.jpg,safe.jpg,windshieldwiper02.jpg,horseshoe.jpg,ceilingfan01.jpg,tarantula.jpg,dragonfly01.jpg,hammerheadshark.jpg,christmastree.jpg,tire.jpg,,,,,,,1,0,11,,,,,.\resources\safe.jpg,,,1,,,,,,,,,1,,,,,,,,,808.6873336800069,None,None,808.6873336800069,None,,,,,,,802.8210433000058,805.5708620000078,802.8210433000058,805.5708620000078,805.304209400012,None,0.13172910000139382,0.24831989999802317,0.3650777000002563,0.4817122000094969,0.6150357000005897,0.7316872000083094,0.848279800004093,0.9649388999969233,1.0816600999969523,1.2149236999975983,1.3316448999976274,1.4482357999950182,,,805.8041827000125,None,805.8041827000125,None,807.2707538000104,None,807.2707538000104,None,left,1.068786599993473,807.2707538000104,None,808.3873416999995,None,808.3873416999995,None,right,0.27231420000316575,808.3873416999995,None,,,Alex,001,2021_Mar_17_1403,AB_pic,2020.2.10,60.00096001393897,
AB,lag3,3,5,8,0.1,0.02,0.2,main,,,,,0,81,81,81,,,,,,,dandelion.jpg,football.jpg,skateboard.jpg,safe.jpg,pirateflag.jpg,hulahoop.jpg,ceilingfan01.jpg,statue.jpg,tarantula.jpg,dragonfly01.jpg,tire.jpg,toad.jpg,windshieldwiper02.jpg,xylophone.jpg,hammerheadshark.jpg,flag.jpg,callbell.jpg,,,,,,,0,0,10,,,,,.\resources\statue.jpg,,,1,,,,,,,,,1,,,,,,,,,813.7370205800122,None,None,813.7370205800122,None,,,,,,,808.7039860000077,811.4542407000117,808.7039860000077,811.4542407000117,811.1876297000126,None,0.12995470000896603,0.24660969999968074,0.36373599999933504,0.496616600008565,0.6132409999991069,0.7299280000006547,0.8465781000122661,0.9632308000000194,1.0965850000065984,1.2132134999992559,1.3298766000079922,,,,811.7042342000059,None,811.7042342000059,None,813.0370402000117,None,813.0370402000117,None,right,0.3907400000025518,813.0370402000117,None,813.4703398999991,None,813.4703398999991,None,right,0.23744140000781044,813.4703398999991,None,,,Alex,001,2021_Mar_17_1403,AB_pic,2020.2.10,60.00096001393897,
AB,lag7,7,5,12,0.1,0.02,0.2,main,,,,,0,82,82,82,,,,,,,safe.jpg,skateboard.jpg,volleyball.jpg,bluecheese.jpg,waterfall.jpg,dalmatian.jpg,football.jpg,tire.jpg,flag.jpg,ceilingfan01.jpg,statue.jpg,windshieldwiper02.jpg,sausage.jpg,christmastree.jpg,porcupine.jpg,lip.jpg,jellybean.jpg,,,,,,,0,1,14,,,,,.\resources\windshieldwiper02.jpg,,,1,,,,,,,,,1,,,,,,,,,819.8032574800033,None,None,819.8032574800033,None,,,,,,,813.7536652000126,816.5034739000112,813.7536652000126,816.5034739000112,816.2368471000082,None,0.13054169999668375,0.2471988000033889,0.3638743000046816,0.48056919999362435,0.6138401999924099,0.7305533000035211,0.8471529999951599,0.9638164999923902,1.0804824999941047,1.2138205999945058,1.33046800000011,1.4471884999948088,1.5637809000036214,1.6804841999983182,816.7534587000118,None,816.7534587000118,None,818.5700119000103,None,818.5700119000103,None,right,0.8496842000022298,818.5700119000103,None,819.4532948000124,None,819.4532948000124,None,left,0.318283300002804,819.4532948000124,None,1.813768699998036,,Alex,001,2021_Mar_17_1403,AB_pic,2020.2.10,60.00096001393897,
