trialType,cndTyp,lag,T1_loc,T2_loc,stimLen,isi,skipProb,phase,trials.thisRepN,trials.thisTrialN,trials.thisN,trials.thisIndex,trials2.thisRepN,trials2.thisTrialN,trials2.thisN,trials2.thisIndex,key_resp_4.keys,key_resp_4.rt,key_resp_4.started,key_resp_4.stopped,textbox.started,textbox.stopped,img0,img1,img2,img3,img4,img5,img6,img7,img8,img9,img10,img11,img12,img13,img14,img15,img16,option1.started,option1.stopped,text_2.started,text_2.stopped,skip1,skip2,lastPresent,displayPicture.started,displayPicture.stopped,polygon_2.started,polygon_2.stopped,opt1_t1,polygon_4.started,polygon_4.stopped,cor1,option1_t1.started,option1_t1.stopped,key_resp.keys,key_resp.rt,key_resp.started,key_resp.stopped,polygon_5.started,polygon_5.stopped,cor2,key_resp_2.keys,key_resp_2.rt,key_resp_2.started,key_resp_2.stopped,textbox_2.started,textbox_2.stopped,textbox_3.started,textbox_3.stopped,key_resp_3.keys,key_resp_3.started,key_resp_3.stopped,textbox_6.started,textbox_6.stopped,key_resp_7.keys,key_resp_7.rt,key_resp_7.started,key_resp_7.stopped,textbox_4.started,textbox_4.stopped,option1_3.started,option1_3.stopped,text_7.started,text_7.stopped,curStimTim,displayPicture_4.started,displayPicture_4.stopped,polygon_16.started,polygon_16.stopped,polygon_7.started,polygon_7.stopped,option1_t1_2.started,option1_t1_2.stopped,key_resp_6.keys,key_resp_6.rt,key_resp_6.started,key_resp_6.stopped,polygon_17.started,polygon_17.stopped,key_resp_8.keys,key_resp_8.rt,key_resp_8.started,key_resp_8.stopped,textbox_5.started,textbox_5.stopped,B0,B1,participant,session,date,expName,psychopyVersion,frameRate,
,,,,,,,,,,,,,,,,,space,0.989522400079295,16.077386099961586,None,,,,,,,,,,,,,,,,,,,,,,,,,,,,,,,,,,,,,,,,,,,,,,,,,,,,,,,,,,,,,,,,,,,,,,,,,,,,,,,,,,,,,,,,,,test,001,2021_Apr_09_1011,AB_pic_singleT2,2020.2.10,59.99545233802225,
AB,lag4,4,3,7,0.2,0.05,0.5,,0,0,0,1,,,,,,,,,16.077386099961586,None,penguin.jpg,kite.jpg,hand01b.jpg,porcupine.jpg,parkingmeter.jpg,wallclock.jpg,shovel01.jpg,duck01.jpg,dartboard.jpg,parachute.jpg,parkfountain.jpg,lily.jpg,dandelion.jpg,paperairplane.jpg,guitarcase.jpg,moon.jpg,nose.jpg,17.172321799909696,19.922575899981894,19.655901599908248,None,1,1,9,20.12264249997679,None,20.12264249997679,None,.\resources\shovel01.jpg,22.622146699926816,None,1,22.622146699926816,None,left,1.1727209999226034,22.622146699926816,None,23.822065299958922,None,1,left,0.43685859988909215,23.822065299958922,None,23.822065299958922,None,24.305356799974106,None,None,25.305195819982327,None,25.305195819982327,None,,,,,,,,,,,,,,,,,,,,,,,,,,,,,,,,,,test,001,2021_Apr_09_1011,AB_pic_singleT2,2020.2.10,59.99545233802225,
AB,lag7,7,4,11,0.2,0.05,0.5,,0,1,1,2,,,,,,,,,,,boat.jpg,sword01.jpg,honeybee.jpg,ceilingfan01.jpg,cocktailshrimp02.jpg,tricycle.jpg,pingpongtable.jpg,spiderweb.jpg,rubikcube.jpg,lighthouse.jpg,bed.jpg,brownsugar.jpg,horse.jpg,trophy01.jpg,cannon.jpg,eyepatch.jpg,smokingpipe.jpg,25.30531189998146,28.055729700019583,27.78904960001819,None,1,1,13,28.305212699924596,None,28.305212699924596,None,.\resources\bed.jpg,31.80494760000147,None,1,31.80494760000147,None,left,0.5579420999856666,31.80494760000147,None,32.40486599993892,None,1,left,0.24600229994393885,32.40486599993892,None,32.40486599993892,None,32.67151040001772,None,None,33.6713394199498,None,33.6713394199498,None,,,,,,,,,,,,,,,,,,,,,,,,,,,,,,,,,,test,001,2021_Apr_09_1011,AB_pic_singleT2,2020.2.10,59.99545233802225,
AB,lag6,6,5,11,0.2,0.05,0.5,,0,2,2,0,,,,,,,,,,,cat.jpg,dartboard.jpg,footballhelmet.jpg,fishingrod.jpg,skateboard.jpg,mailbox02.jpg,uprightpiano01.jpg,scorpion.jpg,sausage.jpg,ironingboard01.jpg,donut.jpg,chainsaw.jpg,callbell.jpg,jackrabbit.jpg,tire.jpg,candycane01a.jpg,ducttape.jpg,33.68811089999508,36.4383732000133,36.155139899929054,None,0,1,13,36.67171009990852,None,36.67171009990852,None,.\resources\donut.jpg,40.171048199990764,None,1,40.171048199990764,None,right,0.5118149999761954,40.171048199990764,None,40.704321099910885,None,1,left,0.22654719999991357,40.704321099910885,None,40.704321099910885,None,40.95430189999752,None,None,41.95412821990904,None,41.95412821990904,None,,,,,,,,,,,,,,,,,,,,,,,,,,,,,,,,,,test,001,2021_Apr_09_1011,AB_pic_singleT2,2020.2.10,59.99545233802225,
AB,lag6,6,5,11,0.2,0.05,0.5,,0,3,3,8,,,,,,,,,,,redfox.jpg,chefshat.jpg,toolbox02.jpg,safe.jpg,jellyfish.jpg,stubbywrench01a.jpg,birdfeeder.jpg,snowman.jpg,bow.jpg,electrictoothbrush01c.jpg,lighthouse.jpg,ostrich.jpg,grizzly.jpg,dalmatian.jpg,boat.jpg,spicerack.jpg,granolabar01.jpg,41.97090119996574,44.72118110000156,44.454527299967594,None,0,1,13,44.97116969991475,None,44.97116969991475,None,.\resources\lighthouse.jpg,48.47050599998329,None,1,48.47050599998329,None,right,0.66840319999028,48.47050599998329,None,49.18708419997711,None,1,left,0.15988669998478144,49.18708419997711,None,49.18708419997711,None,49.370433699921705,None,None,50.37027501994744,None,50.37027501994744,None,,,,,,,,,,,,,,,,,,,,,,,,,,,,,,,,,,test,001,2021_Apr_09_1011,AB_pic_singleT2,2020.2.10,59.99545233802225,
AB,lag1,1,3,4,0.2,0.05,0.5,,0,4,4,3,,,,,,,,,,,bathtub.jpg,anchor.jpg,sheep.jpg,tree.jpg,trampoline.jpg,rubikcube.jpg,baseballbat.jpg,eyepatch.jpg,bumpercar.jpg,crosscountryski.jpg,mailbox02.jpg,moon.jpg,ironingboard01.jpg,cocktailshrimp02.jpg,acorn.jpg,mattress.jpg,birdfeeder.jpg,50.387048800010234,53.137290799990296,52.85397489997558,None,0,0,6,53.3706010999158,None,53.3706010999158,None,.\resources\tree.jpg,55.12014089990407,None,1,55.12014089990407,None,right,0.4188025000039488,55.12014089990407,None,55.57001369993668,None,1,right,0.16890099993906915,55.57001369993668,None,55.57001369993668,None,55.770020699943416,None,None,56.76980121997185,None,56.76980121997185,None,,,,,,,,,,,,,,,,,,,,,,,,,,,,,,,,,,test,001,2021_Apr_09_1011,AB_pic_singleT2,2020.2.10,59.99545233802225,
AB,lag4,4,4,8,0.2,0.05,0.5,,0,5,5,13,,,,,,,,,,,snowboard.jpg,englishcucumber.jpg,cactus.jpg,baseballbat.jpg,mrpotatohead.jpg,church.jpg,tie02.jpg,key07.jpg,treadmill.jpg,kite.jpg,bathtub.jpg,scooter.jpg,pig.jpg,tarantula.jpg,cocktailshrimp02.jpg,noparkingsign.jpg,escalator.jpg,56.76991399994586,59.52021499990951,59.25354009994771,None,0,0,10,59.770155699923635,None,59.770155699923635,None,.\resources\key07.jpg,62.50282910000533,None,1,62.50282910000533,None,right,0.3560628000413999,62.50282910000533,None,62.88620920001995,None,1,right,0.15684859990142286,62.88620920001995,None,62.88620920001995,None,63.08617039991077,None,None,64.08599012000487,None,64.08599012000487,None,,,,,,,,,,,,,,,,,,,,,,,,,,,,,,,,,,test,001,2021_Apr_09_1011,AB_pic_singleT2,2020.2.10,59.99545233802225,
AB,lag7,7,5,12,0.2,0.05,0.5,,0,6,6,7,,,,,,,,,,,chair.jpg,hammerheadshark.jpg,golfball.jpg,flag.jpg,rooster.jpg,crown.jpg,africanelephant.jpg,sheep.jpg,funnel.jpg,bullet.jpg,zipper.jpg,kiwi03.jpg,eiffeltower.jpg,snowman.jpg,lip.jpg,pooltable.jpg,fingerprint.jpg,64.10276959999464,66.85303939995356,66.58640719996765,None,1,0,14,67.10301979992073,None,67.10301979992073,None,.\resources\kiwi03.jpg,70.85232710000128,None,1,70.85232710000128,None,left,0.5985529000172392,70.85232710000128,None,71.48557479993906,None,1,right,0.17353219992946833,71.48557479993906,None,71.48557479993906,None,71.68560709990561,None,None,72.68546191991773,None,72.68546191991773,None,,,,,,,,,,,,,,,,,,,,,,,,,,,,,,,,,,test,001,2021_Apr_09_1011,AB_pic_singleT2,2020.2.10,59.99545233802225,
AB,lag3,3,5,8,0.2,0.05,0.5,,0,7,7,10,,,,,,,,,,,microphone01.jpg,escalator.jpg,urinal.jpg,sheep.jpg,crown.jpg,barrel01.jpg,beerbottle.jpg,schoolbus.jpg,greatwhiteshark.jpg,swing.jpg,chair.jpg,lily.jpg,squid.jpg,platypus.jpg,doghouse.jpg,frisbee.jpg,flamingo.jpg,72.70219729992095,75.45211889990605,75.18544399994425,None,0,1,10,75.7021183000179,None,75.7021183000179,None,.\resources\schoolbus.jpg,78.45190959994216,None,1,78.45190959994216,None,right,0.8230998000362888,78.45190959994216,None,79.30178189999424,None,1,left,0.19710190000478178,79.30178189999424,None,79.30178189999424,None,79.53559539990965,None,None,80.53493801997975,None,80.53493801997975,None,,,,,,,,,,,,,,,,,,,,,,,,,,,,,,,,,,test,001,2021_Apr_09_1011,AB_pic_singleT2,2020.2.10,59.99545233802225,
AB,lag1,1,4,5,0.2,0.05,0.5,,0,8,8,12,,,,,,,,,,,sausage.jpg,flag.jpg,leafrake.jpg,cork02.jpg,kneepad01c.jpg,bumpercar.jpg,pumpkin.jpg,donut.jpg,ladybug03.jpg,dalmatian.jpg,chefshat.jpg,cigar.jpg,stubbywrench01a.jpg,acousticguitar02.jpg,chimney.jpg,bowlingball.jpg,mouse.jpg,80.55172220000532,83.30198280001059,83.01869519997854,None,0,1,7,83.51819899992552,None,83.51819899992552,None,.\resources\kneepad01c.jpg,85.53472839994356,None,1,85.53472839994356,None,right,0.6041461999993771,85.53472839994356,None,86.16801179992035,None,1,left,0.1709077999694273,86.16801179992035,None,86.16801179992035,None,86.36798989993986,None,None,87.36781971999444,None,87.36781971999444,None,,,,,,,,,,,,,,,,,,,,,,,,,,,,,,,,,,test,001,2021_Apr_09_1011,AB_pic_singleT2,2020.2.10,59.99545233802225,
AB,lag3,3,3,6,0.2,0.05,0.5,,0,9,9,5,,,,,,,,,,,hockeypuck.jpg,horseshoe.jpg,leafblower01.jpg,polarbear.jpg,christmaslights.jpg,acorn.jpg,apron.jpg,punchingbag.jpg,car.jpg,mrpotatohead.jpg,ceilingfan01.jpg,frisbee.jpg,pig.jpg,birthdaycandle.jpg,slug.jpg,ducttape.jpg,barrel01.jpg,87.38460969994776,90.1349174999632,89.86823239992373,None,0,0,8,90.38486789993476,None,90.38486789993476,None,.\resources\acorn.jpg,92.63425070000812,None,1,92.63425070000812,None,right,0.31269359996076673,92.63425070000812,None,92.96756000001915,None,1,right,0.1716680999379605,92.96756000001915,None,92.96756000001915,None,93.1842265999876,None,None,94.18406371998135,None,94.18406371998135,None,,,,,,,,,,,,,,,,,,,,,,,,,,,,,,,,,,test,001,2021_Apr_09_1011,AB_pic_singleT2,2020.2.10,59.99545233802225,
AB,lag2,2,5,7,0.2,0.05,0.5,,0,10,10,9,,,,,,,,,,,bluecheese.jpg,cruiseship.jpg,beaver.jpg,duck01.jpg,greywolf.jpg,mailbox02.jpg,skunk.jpg,polarbear.jpg,elbow.jpg,ear.jpg,dormer.jpg,shovel01.jpg,stubbywrench01a.jpg,statue.jpg,totempole.jpg,trumpet.jpg,licenseplate.jpg,94.20081019995268,96.95113029994536,96.68447639991064,None,0,0,9,97.20107899990398,None,97.20107899990398,None,.\resources\skunk.jpg,99.70048319990747,None,1,99.70048319990747,None,right,0.43040289997588843,99.70048319990747,None,100.16711789998226,None,1,right,0.14773179998155683,100.16711789998226,None,100.16711789998226,None,100.33375039999373,None,None,101.33357851991896,None,101.33357851991896,None,,,,,,,,,,,,,,,,,,,,,,,,,,,,,,,,,,test,001,2021_Apr_09_1011,AB_pic_singleT2,2020.2.10,59.99545233802225,
AB,lag5,5,4,9,0.2,0.05,0.5,,0,11,11,11,,,,,,,,,,,humanskeleton.jpg,crown.jpg,sheep.jpg,skippingrope.jpg,hammerheadshark.jpg,cocktailshrimp02.jpg,chair.jpg,horse.jpg,bluecheese.jpg,snowboard.jpg,saltshaker03a.jpg,cashregister01.jpg,ant.jpg,mrpotatohead.jpg,vulture.jpg,witchhat.jpg,triangle.jpg,101.35034449992236,104.10064369998872,103.83399049995933,None,0,1,11,104.35061879991554,None,104.35061879991554,None,.\resources\bluecheese.jpg,107.34995810000692,None,1,107.34995810000692,None,right,0.8049220000393689,107.34995810000692,None,108.18323029996827,None,1,left,0.0917599000968039,108.18323029996827,None,108.18323029996827,None,108.29994559998158,None,None,109.29968431992457,None,109.29968431992457,None,,,,,,,,,,,,,,,,,,,,,,,,,,,,,,,,,,test,001,2021_Apr_09_1011,AB_pic_singleT2,2020.2.10,59.99545233802225,
AB,lag5,5,4,9,0.2,0.05,0.5,,0,12,12,6,,,,,,,,,,,tie02.jpg,handcuffs.jpg,peacock.jpg,totempole.jpg,sausage.jpg,pirateflag.jpg,cat.jpg,butterfly.jpg,armadillo.jpg,scorpion.jpg,knee.jpg,lightswitch01.jpg,car.jpg,cashregister01.jpg,snowshovel.jpg,smokingpipe.jpg,moon.jpg,109.31647660001181,112.06676549999975,111.80015999998432,None,0,0,11,112.29962860001251,None,112.29962860001251,None,.\resources\armadillo.jpg,115.31611189991236,None,1,115.31611189991236,None,right,0.3747688999865204,115.31611189991236,None,115.71609649993479,None,1,right,0.16698040009941906,115.71609649993479,None,115.71609649993479,None,115.91606079996563,None,None,116.91588892000728,None,116.91588892000728,None,,,,,,,,,,,,,,,,,,,,,,,,,,,,,,,,,,test,001,2021_Apr_09_1011,AB_pic_singleT2,2020.2.10,59.99545233802225,
AB,lag2,2,3,5,0.2,0.05,0.5,,0,13,13,4,,,,,,,,,,,bench01.jpg,cobra.jpg,beaver.jpg,barrel01.jpg,penguin.jpg,spicerack.jpg,cocktailshrimp02.jpg,tortoise01.jpg,horse.jpg,honeybee.jpg,tie02.jpg,exitsign.jpg,butterfly.jpg,slug.jpg,pumpkin.jpg,key07.jpg,punchingbag.jpg,116.91603209997993,119.6658851999091,119.39927449997049,None,0,1,7,119.89922559994739,None,119.89922559994739,None,.\resources\penguin.jpg,121.91576889995486,None,1,121.91576889995486,None,right,0.8311200001044199,121.91576889995486,None,122.78283989999909,None,1,left,0.14805139997042716,122.78283989999909,None,122.78283989999909,None,122.96614929998759,None,None,123.96599621993956,None,123.96599621993956,None,,,,,,,,,,,,,,,,,,,,,,,,,,,,,,,,,,test,001,2021_Apr_09_1011,AB_pic_singleT2,2020.2.10,59.99545233802225,
,,,,,,,,,,,,,,,,,,,,,,,,,,,,,,,,,,,,,,,,,,,,,,,,,,,,,,,,,,,,,,,,,,,,,,,,,,,,,space,1.4754156999988481,123.9661216000095,None,,,,,,,,,,,,,,,,,,,,,,,,,,,,,,test,001,2021_Apr_09_1011,AB_pic_singleT2,2020.2.10,59.99545233802225,
AB,lag6,6,5,11,0.2,0.05,0.5,ramp,,,,,0,0,0,0,,,,,,,bullet.jpg,beaver.jpg,dartboard.jpg,worldmap.jpg,pumpkin.jpg,wheelchair.jpg,recyclingbin.jpg,leafblower01.jpg,masquerademask01.jpg,smokingpipe.jpg,athleticsock.jpg,callbell.jpg,chainsaw.jpg,whiteout.jpg,icecube02.jpg,mummy.jpg,beerbottle.jpg,,,,,0,1,13,,,,,.\resources\athleticsock.jpg,,,1,,,,,,,,,1,,,,,,,,,None,132.69818721995688,None,132.69818721995688,None,,,,,123.9661216000095,None,125.51548419997562,128.26530719990842,127.99864759994671,None,0.2,128.49862669990398,None,128.49862669990398,None,132.0150312000187,None,132.0150312000187,None,right,0.45189809997100383,132.0150312000187,None,132.4983479999937,None,left,0.18453780002892017,132.4983479999937,None,132.4983479999937,None,,,test,001,2021_Apr_09_1011,AB_pic_singleT2,2020.2.10,59.99545233802225,
AB,lag4,4,4,8,0.19066666667,0.048,0.48,ramp,,,,,0,1,1,1,,,,,,,toad.jpg,magneticcompass.jpg,pooltable.jpg,smokingpipe.jpg,horse.jpg,mrpotatohead.jpg,crab01.jpg,hockeystick.jpg,windmill.jpg,cashregister01.jpg,cheetah.jpg,uprightpiano01.jpg,greathornowl.jpg,rooster.jpg,hotdogweiner.jpg,fingerprint.jpg,kiwi03.jpg,,,,,0,1,10,,,,,.\resources\hockeystick.jpg,,,1,,,,,,,,,1,,,,,,,,,None,139.06446971993427,None,139.06446971993427,None,,,,,,,132.71496749995276,135.46524619997945,135.19858520000707,None,0.19066666667,135.71526809991337,None,135.71526809991337,None,138.34791919996496,None,138.34791919996496,None,right,0.4309793000575155,138.34791919996496,None,138.99793959991075,None,left,0.03714789997320622,138.99793959991075,None,138.99793959991075,None,-10.004528787510308,150.00000014183738,test,001,2021_Apr_09_1011,AB_pic_singleT2,2020.2.10,59.99545233802225,
AB,lag7,7,4,11,0.18133333334,0.046,0.45999999999999996,ramp,,,,,0,2,2,2,,,,,,,grizzly.jpg,bathtub.jpg,noparkingsign.jpg,badmintonracket.jpg,waterfountain02.jpg,microwave.jpg,jellybean.jpg,sledgehammer.jpg,electricguitar01.jpg,lollipop04.jpg,tortoise01.jpg,magneticcompass.jpg,pokerchips.jpg,greywolf.jpg,foot.jpg,frisbee.jpg,parachute.jpg,,,,,1,0,13,,,,,.\resources\tortoise01.jpg,,,1,,,,,,,,,1,,,,,,,,,None,146.74730991995892,None,146.74730991995892,None,,,,,,,139.08120889996644,141.831030500005,141.54770629992709,None,0.18133333334,142.0477027000161,None,142.0477027000161,None,145.26414270000532,None,145.26414270000532,None,left,0.8029530999483541,145.26414270000532,None,146.31415109999944,None,right,0.40883760002907366,146.31415109999944,None,146.31415109999944,None,-10.009036191361307,150.0000004569304,test,001,2021_Apr_09_1011,AB_pic_singleT2,2020.2.10,59.99545233802225,
AB,lag5,5,5,10,0.17200000001000001,0.044,0.43999999999999995,ramp,,,,,0,3,3,3,,,,,,,toucan.jpg,bridge.jpg,squid.jpg,firehydrant.jpg,hockeystick.jpg,parkfountain.jpg,marble.jpg,rose.jpg,beerbottle.jpg,lightswitch01.jpg,harmonica.jpg,flamingo.jpg,wheelbarrow01.jpg,motorcycle.jpg,tortoise01.jpg,cupcake.jpg,helicopter.jpg,,,,,1,1,12,,,,,.\resources\lightswitch01.jpg,,,1,,,,,,,,,1,,,,,,,,,None,154.19722691997885,None,154.19722691997885,None,,,,,,,146.7640580999432,149.51385749992914,149.247196399956,None,0.17200000001000001,149.76385160000063,None,149.76385160000063,None,152.5803292999044,None,152.5803292999044,None,left,0.8305657999590039,152.5803292999044,None,153.6469619999407,None,left,0.5319077000021935,153.6469619999407,None,153.6469619999407,None,-10.0135202605149,150.00000130248094,test,001,2021_Apr_09_1011,AB_pic_singleT2,2020.2.10,59.99545233802225,
AB,lag2,2,3,5,0.16266666668000002,0.041999999999999996,0.41999999999999993,ramp,,,,,0,4,4,4,,,,,,,toolbox02.jpg,toyanimal05.jpg,flag.jpg,golfball.jpg,mouse.jpg,baseballbat.jpg,recyclingbin.jpg,uprightpiano01.jpg,jeep.jpg,soccerball.jpg,skunk.jpg,smokingpipe.jpg,brownsugar.jpg,chair.jpg,urinal.jpg,paperairplane.jpg,boat.jpg,,,,,1,0,7,,,,,.\resources\mouse.jpg,,,1,,,,,,,,,1,,,,,,,,,None,160.0464669199893,None,160.0464669199893,None,,,,,,,154.2140310999239,156.9633785999613,156.6967491999967,None,0.16266666668000002,157.1966905000154,None,157.1966905000154,None,158.8632809999399,None,158.8632809999399,None,left,0.5879877000115812,158.8632809999399,None,159.69654989999253,None,right,0.33038630010560155,159.69654989999253,None,159.69654989999253,None,-10.017973892205525,150.00000383248582,test,001,2021_Apr_09_1011,AB_pic_singleT2,2020.2.10,59.99545233802225,
AB,lag3,3,5,8,0.15333333335000002,0.039999999999999994,0.3999999999999999,ramp,,,,,0,5,5,5,,,,,,,crosscountryski.jpg,banjo.jpg,surfboard.jpg,pirateflag.jpg,scorpion.jpg,hulahoop.jpg,granolabar01.jpg,tortoise01.jpg,tiger02.jpg,wheelbarrow01.jpg,kneepad01c.jpg,honeybee.jpg,mouse.jpg,triangle.jpg,parkingmeter.jpg,duck01.jpg,dalmatian.jpg,,,,,0,0,10,,,,,.\resources\tortoise01.jpg,,,1,,,,,,,,,1,,,,,,,,,None,165.89605051993857,None,165.89605051993857,None,,,,,,,160.06316329992842,162.8130008999724,162.54635009996127,None,0.15333333335000002,163.0629679999547,None,163.0629679999547,None,165.19620030000806,None,165.19620030000806,None,right,0.33477570000104606,165.19620030000806,None,165.76281230000313,None,right,0.1041550999507308,165.76281230000313,None,165.76281230000313,None,-10.022371797059314,150.0000118512837,test,001,2021_Apr_09_1011,AB_pic_singleT2,2020.2.10,59.99545233802225,
AB,lag1,1,4,5,0.14400000002000002,0.03799999999999999,0.3799999999999999,ramp,,,,,0,6,6,6,,,,,,,pirateflag.jpg,paperairplane.jpg,mouse.jpg,platypus.jpg,holdfast.jpg,footballhelmet.jpg,coffeemaker.jpg,magneticcompass.jpg,mailbox02.jpg,stool01.jpg,crab01.jpg,kneepad01c.jpg,alligator.jpg,honeybee.jpg,vulture.jpg,squid.jpg,spiderweb.jpg,,,,,1,1,7,,,,,.\resources\holdfast.jpg,,,1,,,,,,,,,1,,,,,,,,,None,171.66232451999093,None,171.66232451999093,None,,,,,,,165.912808699999,168.66306940000504,168.39641489996575,None,0.14400000002000002,168.91307709994726,None,168.91307709994726,None,170.37916239991318,None,170.37916239991318,None,left,0.7597250000108033,170.37916239991318,None,171.39575459994376,None,left,0.2471876998897642,171.39575459994376,None,171.39575459994376,None,-10.0266234094996,150.00003808371764,test,001,2021_Apr_09_1011,AB_pic_singleT2,2020.2.10,59.99545233802225,
AB,lag6,6,5,11,0.13466666669000002,0.03599999999999999,0.3599999999999999,ramp,,,,,0,7,7,7,,,,,,,drumset.jpg,tire.jpg,paperairplane.jpg,nose.jpg,dolphin01.jpg,marble.jpg,seagull.jpg,sledgehammer.jpg,acorn.jpg,xylophone.jpg,wallclock.jpg,golfball.jpg,athleticsock.jpg,lightswitch01.jpg,flamingo.jpg,hulahoop.jpg,licenseplate.jpg,,,,,1,0,13,,,,,.\resources\wallclock.jpg,,,1,,,,,,,,,1,,,,,,,,,None,177.9785536199808,None,177.9785536199808,None,,,,,,,171.67907099996228,174.42934269993566,174.16271239996422,None,0.13466666669000002,174.6793443999486,None,174.6793443999486,None,177.07872230000794,None,177.07872230000794,None,left,0.3881694000447169,177.07872230000794,None,177.72868679999374,None,right,0.23425920004956424,177.72868679999374,None,177.72868679999374,None,-10.030400865469566,150.00012551120884,test,001,2021_Apr_09_1011,AB_pic_singleT2,2020.2.10,59.99545233802225,
AB,lag3,3,4,7,0.12533333336000002,0.03399999999999999,0.33999999999999986,ramp,,,,,0,8,8,8,,,,,,,telescope.jpg,giraffe.jpg,hammerheadshark.jpg,saltshaker03a.jpg,boat.jpg,stubbywrench01a.jpg,soccerball.jpg,greathornowl.jpg,jackrabbit.jpg,xylophone.jpg,sword01.jpg,fortunecookie.jpg,sheep.jpg,kangaroo.jpg,ironingboard01.jpg,toolbox02.jpg,bow.jpg,,,,,0,0,9,,,,,.\resources\soccerball.jpg,,,1,,,,,,,,,1,,,,,,,,,None,183.31153941997326,None,183.31153941997326,None,,,,,,,177.99533169995993,180.74515259999316,180.4784605000168,None,0.12533333336000002,180.99512779992074,None,180.99512779992074,None,182.595026499941,None,182.595026499941,None,right,0.3918692000443116,182.595026499941,None,183.26165809994563,None,right,0.021272200043313205,183.26165809994563,None,183.26165809994563,None,-10.032506214951274,150.00042003234202,test,001,2021_Apr_09_1011,AB_pic_singleT2,2020.2.10,59.99545233802225,
AB,lag4,4,4,8,0.11600000003000002,0.03199999999999999,0.31999999999999984,ramp,,,,,0,9,9,9,,,,,,,snowshoe.jpg,chefshat.jpg,panda.jpg,toolbox02.jpg,recyclingbin.jpg,horse.jpg,locker.jpg,skippingrope.jpg,ladybug03.jpg,punchingbag.jpg,frenchfries.jpg,key07.jpg,frisbee.jpg,spear02.jpg,electricguitar01.jpg,parkfountain.jpg,rubikcube.jpg,,,,,1,0,10,,,,,.\resources\skippingrope.jpg,,,1,,,,,,,,,1,,,,,,,,,None,188.69452001997269,None,188.69452001997269,None,,,,,,,183.32830579997972,186.07861069997307,185.79529719997663,None,0.11600000003000002,186.31192040001042,None,186.31192040001042,None,187.94467200001236,None,187.94467200001236,None,left,0.3942449999740347,187.94467200001236,None,188.61131639999803,None,right,0.05578860000241548,188.61131639999803,None,188.61131639999803,None,-10.028549770678609,150.0014153295362,test,001,2021_Apr_09_1011,AB_pic_singleT2,2020.2.10,59.99545233802225,
AB,lag5,5,4,9,0.10666666670000002,0.029999999999999985,0.2999999999999998,ramp,,,,,0,10,10,10,,,,,,,doghouse.jpg,bullet.jpg,nose.jpg,statue.jpg,fingerprint.jpg,fridge.jpg,cross01.jpg,jackrabbit.jpg,granolabar01.jpg,coffeemaker.jpg,vacuumcleaner01.jpg,zipper.jpg,floorlamp.jpg,pooltable.jpg,daddylonglegs.jpg,scorpion.jpg,frenchfries.jpg,,,,,1,1,11,,,,,.\resources\granolabar01.jpg,,,1,,,,,,,,,1,,,,,,,,,None,194.3774659199873,None,194.3774659199873,None,,,,,,,188.71132489992306,191.4611322999699,191.19445539999288,None,0.10666666670000002,191.69446869997773,None,191.69446869997773,None,193.3609865999315,None,193.3609865999315,None,left,0.6739435999188572,193.3609865999315,None,194.32804759999271,None,left,0.026790499920025468,194.32804759999271,None,194.32804759999271,None,-10.002711304331388,150.00474096888158,test,001,2021_Apr_09_1011,AB_pic_singleT2,2020.2.10,59.99545233802225,
AB,lag2,2,3,5,0.09733333337000002,0.027999999999999983,0.3,ramp,,,,,0,11,11,11,,,,,,,greywolf.jpg,chimney.jpg,birdhouse.jpg,redfox.jpg,trumpet.jpg,sandcastle.jpg,witchhat.jpg,boat.jpg,tire.jpg,seal.jpg,bull.jpg,pokerchips.jpg,kiwi03.jpg,donut.jpg,granolabar01.jpg,spear02.jpg,accordion01.jpg,,,,,0,1,7,,,,,.\resources\trumpet.jpg,,,1,,,,,,,,,1,,,,,,,,,None,199.5271952199284,None,199.5271952199284,None,,,,,,,194.39471429993864,197.1440653000027,196.8774306999985,None,0.09733333337000002,197.37740469991695,None,197.37740469991695,None,198.41065530001651,None,198.41065530001651,None,right,0.5922391000203788,198.41065530001651,None,199.293940500007,None,left,0.2129551999969408,199.293940500007,None,199.293940500007,None,-9.902411781377504,150.01529033100186,test,001,2021_Apr_09_1011,AB_pic_singleT2,2020.2.10,59.99545233802225,
AB,lag1,1,4,5,0.08800000004000003,0.02599999999999998,0.3,ramp,,,,,0,12,12,12,,,,,,,coffeemaker.jpg,zipper.jpg,humanskeleton.jpg,fridge.jpg,marble.jpg,banjo.jpg,bullet.jpg,saxophone.jpg,rubikcube.jpg,tie02.jpg,well.jpg,treadmill.jpg,doghouse.jpg,scooter.jpg,hulahoop.jpg,candycane01a.jpg,bacon.jpg,,,,,1,0,7,,,,,.\resources\marble.jpg,,,1,,,,,,,,,1,,,,,,,,,None,204.4934826199198,None,204.4934826199198,None,,,,,,,199.54391349991783,202.29374639992602,202.02707509999163,None,0.08800000004000003,202.52705229993444,None,202.52705229993444,None,203.4603258999996,None,203.4603258999996,None,left,0.6865241000195965,203.4603258999996,None,204.42692949995399,None,right,0.04797290009446442,204.42692949995399,None,204.42692949995399,None,-9.594781776483776,150.04385846783424,test,001,2021_Apr_09_1011,AB_pic_singleT2,2020.2.10,59.99545233802225,
AB,lag7,7,5,12,0.07866666671000003,0.02399999999999998,0.3,ramp,,,,,0,13,13,13,,,,,,,swing.jpg,parkingmeter.jpg,eye.jpg,humanskeleton.jpg,table01.jpg,christmastree.jpg,sandcastle.jpg,bumpercar.jpg,fireplace.jpg,dragonfly01.jpg,bowlingpin.jpg,tarantula.jpg,granolabar01.jpg,waterfountain02.jpg,bowlingball.jpg,cannon.jpg,bluecheese.jpg,,,,,1,1,14,,,,,.\resources\tarantula.jpg,,,1,,,,,,,,,1,,,,,,,,,None,210.04311681997495,None,210.04311681997495,None,,,,,,,204.5102519999491,207.26056859991513,206.99389289994724,None,0.07866666671000003,207.49335649993736,None,207.49335649993736,None,209.05996839993168,None,209.05996839993168,None,left,0.6152540999464691,209.05996839993168,None,209.97656129999086,None,left,0.05031109997071326,209.97656129999086,None,209.97656129999086,None,-8.919943188388041,150.09993356638552,test,001,2021_Apr_09_1011,AB_pic_singleT2,2020.2.10,59.99545233802225,
AB,lag1,1,3,4,0.06933333338000003,0.021999999999999978,0.3,ramp,,,,,0,14,14,14,,,,,,,horse.jpg,pirateflag.jpg,crown.jpg,skateboard.jpg,raccoon.jpg,treadmill.jpg,vulture.jpg,drumset.jpg,tie02.jpg,tiger02.jpg,rooster.jpg,penguin.jpg,vacuumcleaner01.jpg,leafrake.jpg,frisbee.jpg,apron.jpg,cymbal.jpg,,,,,1,0,6,,,,,.\resources\skateboard.jpg,,,1,,,,,,,,,1,,,,,,,,,None,214.80953251994214,None,214.80953251994214,None,,,,,,,210.05985819990747,212.8102513999911,212.54361439996865,None,0.06933333338000003,213.06027789996006,None,213.06027789996006,None,213.709672799916,None,213.709672799916,None,left,0.6933447999181226,213.709672799916,None,214.72630749992095,None,right,0.05259929993189871,214.72630749992095,None,214.72630749992095,None,-7.90515905873236,150.1754740964528,test,001,2021_Apr_09_1011,AB_pic_singleT2,2020.2.10,59.99545233802225,
AB,lag6,6,5,11,0.06000000005000003,0.02,0.3,main,,,,,0,15,15,15,,,,,,,horseshoe.jpg,bowlingball.jpg,shovel01.jpg,foldingchair.jpg,spicerack.jpg,crab01.jpg,tent.jpg,recyclingbin.jpg,smokingpipe.jpg,icecube02.jpg,cymbal.jpg,englishcucumber.jpg,urinal.jpg,crosscountryski.jpg,tank.jpg,dragonfly01.jpg,vacuumcleaner01.jpg,,,,,1,0,13,,,,,.\resources\cymbal.jpg,,,1,,,,,,,,,1,,,,,,,,,None,220.2429106199881,None,220.2429106199881,None,,,,,,,214.8263319999678,217.57612049998716,217.30946829996537,None,0.06223669471054178,217.80943339993246,None,217.80943339993246,None,218.99268869997468,None,218.99268869997468,None,left,0.8422327000880614,218.99268869997468,None,220.14301969995722,None,right,0.07588869996834546,220.14301969995722,None,220.14301969995722,None,-6.8729700053667955,150.24787576983903,test,001,2021_Apr_09_1011,AB_pic_singleT2,2020.2.10,59.99545233802225,
AB,lag1,1,5,6,0.06000000005000003,0.02,0.3,main,,,,,0,16,16,16,,,,,,,tent.jpg,sledgehammer.jpg,kite.jpg,bowlingpin.jpg,witchhat.jpg,flag.jpg,licenseplate.jpg,horse.jpg,cruiseship.jpg,key07.jpg,fridge.jpg,honeybee.jpg,wheelchair.jpg,tank.jpg,waterfountain02.jpg,platypus.jpg,foldingchair.jpg,,,,,1,1,8,,,,,.\resources\flag.jpg,,,1,,,,,,,,,1,,,,,,,,,None,225.22549982001073,None,225.22549982001073,None,,,,,,,220.25969219999388,223.00903720001224,222.7423589999089,None,0.05728317096267638,223.24236709997058,None,223.24236709997058,None,223.95943729998544,None,223.95943729998544,None,left,0.7634331000735983,223.95943729998544,None,225.02558429993223,None,left,0.16954739997163415,225.02558429993223,None,225.02558429993223,None,-6.033722670188967,150.3094918336796,test,001,2021_Apr_09_1011,AB_pic_singleT2,2020.2.10,59.99545233802225,
AB,lag5,5,3,8,0.06000000005000003,0.02,0.3,main,,,,,0,17,17,17,,,,,,,lightswitch01.jpg,ironingboard01.jpg,paperairplane.jpg,tricycle.jpg,whiteout.jpg,callbell.jpg,snowman.jpg,birdhouse.jpg,drumset.jpg,pigeon.jpg,dalmatian.jpg,porcupine.jpg,giraffe.jpg,bench01.jpg,seal.jpg,vacuumcleaner01.jpg,musicsheet.jpg,,,,,0,0,10,,,,,.\resources\birdhouse.jpg,,,0,,,,,,,,,1,,,,,,,,,None,229.94182101991026,None,229.94182101991026,None,,,,,,,225.24222399992868,227.99250359996222,227.72586379991844,None,0.047024881392639606,228.24249939993024,None,228.24249939993024,None,228.99245749996044,None,228.99245749996044,None,left,0.6104339000303298,228.99245749996044,None,229.90859989996534,None,right,0.014301900053396821,229.90859989996534,None,229.90859989996534,None,-7.358561967879341,150.2752280856348,test,001,2021_Apr_09_1011,AB_pic_singleT2,2020.2.10,59.99545233802225,
AB,lag3,3,4,7,0.06000000005000003,0.02,0.3,main,,,,,0,18,18,18,,,,,,,moon.jpg,acousticguitar02.jpg,cross01.jpg,bench01.jpg,donut.jpg,raccoon.jpg,swing.jpg,humanskeleton.jpg,grizzly.jpg,pig.jpg,badmintonracket.jpg,funnel.jpg,shower.jpg,mouse.jpg,smokingpipe.jpg,jeep.jpg,mummy.jpg,,,,,1,0,9,,,,,.\resources\swing.jpg,,,1,,,,,,,,,1,,,,,,,,,None,234.45820621999445,None,234.45820621999445,None,,,,,,,229.9586070999503,232.70890109997708,232.4255475999089,None,0.05895898184275753,232.925077999942,None,232.925077999942,None,233.74168699991424,None,233.74168699991424,None,left,0.3814950999803841,233.74168699991424,None,234.44164309999906,None,right,0.0013240999542176723,234.44164309999906,None,234.44164309999906,None,-7.162745629212952,150.32406214976297,test,001,2021_Apr_09_1011,AB_pic_singleT2,2020.2.10,59.99545233802225,
AB,lag2,2,5,7,0.06000000005000003,0.02,0.3,main,,,,,0,19,19,19,,,,,,,rubikcube.jpg,arrow02.jpg,crosscountryski.jpg,snowman.jpg,dormer.jpg,lizard.jpg,uprightpiano01.jpg,fortunecookie.jpg,parachute.jpg,spear02.jpg,cupcake.jpg,apron.jpg,tank.jpg,volleyball.jpg,banjo.jpg,tire.jpg,makiroll.jpg,,,,,0,1,9,,,,,.\resources\uprightpiano01.jpg,,,1,,,,,,,,,1,,,,,,,,,None,239.6078518199967,None,239.6078518199967,None,,,,,,,234.47497919993475,237.22523280000314,236.9586002000142,None,0.05460417194760893,237.45809430000372,None,237.45809430000372,None,238.22470749996137,None,238.22470749996137,None,right,0.8181489000562578,238.22470749996137,None,239.37464379996527,None,left,0.21225660003256053,239.37464379996527,None,239.37464379996527,None,-6.8520275601526075,150.37815903992632,test,001,2021_Apr_09_1011,AB_pic_singleT2,2020.2.10,59.99545233802225,
AB,lag4,4,3,7,0.06000000005000003,0.02,0.3,main,,,,,0,20,20,20,,,,,,,elbow.jpg,accordion01.jpg,spear02.jpg,toad.jpg,callbell.jpg,witchhat.jpg,exitsign.jpg,baseballbat.jpg,waterfountain02.jpg,athleticsock.jpg,acousticguitar02.jpg,funnel.jpg,bumpercar.jpg,nunchuk.jpg,bridge.jpg,tire.jpg,cymbal.jpg,,,,,1,0,9,,,,,.\resources\exitsign.jpg,,,1,,,,,,,,,1,,,,,,,,,None,246.59073141990228,None,246.59073141990228,None,,,,,,,239.62465239991434,242.3744573999429,242.09117189992685,None,0.05174106422068171,242.59110829990823,None,242.59110829990823,None,243.34105059993453,None,243.34105059993453,None,left,0.4298635999439284,243.34105059993453,None,244.09101199998986,None,right,2.4798599000787362,244.09101199998986,None,244.09101199998986,None,-6.540497318810752,150.42955952196263,test,001,2021_Apr_09_1011,AB_pic_singleT2,2020.2.10,59.99545233802225,
AB,lag7,7,5,12,0.06000000005000003,0.02,0.3,main,,,,,0,21,21,21,,,,,,,dreamcatcher.jpg,paperairplane.jpg,musicsheet.jpg,bull.jpg,hulahoop.jpg,kangaroo.jpg,soccerball.jpg,englishcucumber.jpg,jackrabbit.jpg,rose.jpg,waterfountain02.jpg,parkfountain.jpg,dartboard.jpg,candycane01a.jpg,surfboard.jpg,armadillo.jpg,rollerblade.jpg,,,,,1,0,14,,,,,.\resources\parkfountain.jpg,,,1,,,,,,,,,1,,,,,,,,,None,252.55703271999954,None,252.55703271999954,None,,,,,,,246.6074961000122,249.35778969991952,249.0739978000056,None,0.05364012742962296,249.59111239993945,None,249.59111239993945,None,250.70722569990903,None,250.70722569990903,None,left,1.1997082999441773,250.70722569990903,None,252.24047119996976,None,right,0.2984855000395328,252.24047119996976,None,252.24047119996976,None,-6.350311775233835,150.47495847347489,test,001,2021_Apr_09_1011,AB_pic_singleT2,2020.2.10,59.99545233802225,
AB,lag6,6,5,11,0.06000000005000003,0.02,0.3,main,,,,,0,22,22,22,,,,,,,saxophone.jpg,grizzly.jpg,cloud.jpg,daddylonglegs.jpg,cow.jpg,tent.jpg,turnstile.jpg,hand01b.jpg,ladder.jpg,car.jpg,raccoon.jpg,floorlamp.jpg,redfox.jpg,bow.jpg,armadillo.jpg,birdfeeder.jpg,safe.jpg,,,,,0,0,13,,,,,.\resources\raccoon.jpg,,,0,,,,,,,,,1,,,,,,,,,None,260.00652311991433,None,260.00652311991433,None,,,,,,,252.57377729995642,255.32406809995882,255.05742259998806,None,0.04882313872021466,255.5740433000028,None,255.5740433000028,None,256.55685860000085,None,256.55685860000085,None,left,2.726141200051643,256.55685860000085,None,259.6399825999979,None,right,0.3390955999493599,259.6399825999979,None,259.6399825999979,None,-6.931899763915882,150.48799719526895,test,001,2021_Apr_09_1011,AB_pic_singleT2,2020.2.10,59.99545233802225,
AB,lag7,7,5,12,0.06000000005000003,0.02,0.3,main,,,,,0,23,23,23,,,,,,,redfox.jpg,dandelion.jpg,birdhouse.jpg,coffeemaker.jpg,bluejay.jpg,mrpotatohead.jpg,athleticsock.jpg,saxophone.jpg,sink.jpg,baseballbat.jpg,toad.jpg,tortoise01.jpg,jeans01.jpg,key07.jpg,seal.jpg,ducttape.jpg,rose.jpg,,,,,0,0,14,,,,,.\resources\tortoise01.jpg,,,1,,,,,,,,,1,,,,,,,,,None,265.1568060199963,None,265.1568060199963,None,,,,,,,260.02325959992595,262.77370359993074,262.5070453999797,None,0.05075795824373635,263.02367169992067,None,263.02367169992067,None,264.08973679994233,None,264.08973679994233,None,right,0.4811652998905629,264.08973679994233,None,264.9063769999193,None,right,0.2247374999569729,264.9063769999193,None,264.9063769999193,None,-6.727462055595122,150.53868352299668,test,001,2021_Apr_09_1011,AB_pic_singleT2,2020.2.10,59.99545233802225,
AB,lag5,5,3,8,0.06000000005000003,0.02,0.3,main,,,,,0,24,24,24,,,,,,,bat.jpg,frisbee.jpg,sword01.jpg,airhockeytable.jpg,football.jpg,doghouse.jpg,horseshoe.jpg,steeringwheel.jpg,icecube02.jpg,pirateflag.jpg,sink.jpg,curtain.jpg,electricguitar01.jpg,corn02.jpg,shower.jpg,callbell.jpg,englishcucumber.jpg,,,,,0,0,10,,,,,.\resources\steeringwheel.jpg,,,1,,,,,,,,,1,,,,,,,,,None,270.70635471998247,None,270.70635471998247,None,,,,,,,265.1734997999156,267.9228401000146,267.6561671999516,None,0.057155660780387293,268.1728329999605,None,268.1728329999605,None,269.0394109999761,None,269.0394109999761,None,right,0.38766960008069873,269.0394109999761,None,269.78935749991797,None,right,0.8936562000308186,269.78935749991797,None,269.78935749991797,None,-6.646948062402961,150.58437697523098,test,001,2021_Apr_09_1011,AB_pic_singleT2,2020.2.10,59.99545233802225,
AB,lag3,3,3,6,0.06000000005000003,0.02,0.3,main,,,,,0,25,25,25,,,,,,,toolbox02.jpg,pigeon.jpg,guitarcase.jpg,calendar.jpg,drumstick.jpg,parkingmeter.jpg,eiffeltower.jpg,turnstile.jpg,saxophone.jpg,cashregister01.jpg,greatwhiteshark.jpg,flag.jpg,mailbox02.jpg,christmastree.jpg,fireplace.jpg,scooter.jpg,rooster.jpg,,,,,0,0,8,,,,,.\resources\parkingmeter.jpg,,,1,,,,,,,,,1,,,,,,,,,None,275.70551881990394,None,275.70551881990394,None,,,,,,,270.72310469998047,273.4724228999112,273.2057760999305,None,0.05282526573786305,273.7057402000064,None,273.7057402000064,None,274.3890392999165,None,274.3890392999165,None,right,0.6539082999806851,274.3890392999165,None,275.42227919993456,None,right,0.26071920001413673,275.42227919993456,None,275.42227919993456,None,-6.523001986223312,150.63185568959182,test,001,2021_Apr_09_1011,AB_pic_singleT2,2020.2.10,59.99545233802225,
AB,lag2,2,3,5,0.06000000005000003,0.02,0.3,main,,,,,0,26,26,26,,,,,,,paperairplane.jpg,cigar.jpg,englishcucumber.jpg,vulture.jpg,ant.jpg,pig.jpg,treadmill.jpg,discoball.jpg,exitsign.jpg,lollipop04.jpg,tortoise01.jpg,nose.jpg,cannon.jpg,rose.jpg,raccoon.jpg,worldmap.jpg,moon.jpg,,,,,0,0,7,,,,,.\resources\ant.jpg,,,1,,,,,,,,,1,,,,,,,,,None,280.371842020005,None,280.371842020005,None,,,,,,,275.72228099999484,278.47210809995886,278.2054216999095,None,0.051631622280336235,278.7054332999978,None,278.7054332999978,None,279.3053560999688,None,279.3053560999688,None,right,0.4577229000860825,279.3053560999688,None,280.13868229999207,None,right,0.21626229991670698,280.13868229999207,None,280.13868229999207,None,-6.398025032912302,150.67831773759934,test,001,2021_Apr_09_1011,AB_pic_singleT2,2020.2.10,59.99545233802225,
AB,lag1,1,5,6,0.06000000005000003,0.02,0.3,main,,,,,0,27,27,27,,,,,,,bathtub.jpg,sausage.jpg,beaver.jpg,bumpercar.jpg,waterfall.jpg,giraffe.jpg,spiderweb.jpg,cupcake.jpg,zebra.jpg,waterfountain02.jpg,snowboard.jpg,cocktailshrimp02.jpg,flamingo.jpg,frisbee.jpg,ipad02.jpg,fishskeleton.jpg,armadillo.jpg,,,,,0,0,8,,,,,.\resources\giraffe.jpg,,,0,,,,,,,,,1,,,,,,,,,None,287.938049419946,None,287.938049419946,None,,,,,,,280.38866289996076,283.13893459993415,282.87222919997294,None,0.05198951450899043,283.37180149997585,None,283.37180149997585,None,284.05554630002007,None,284.05554630002007,None,left,3.235555600025691,284.05554630002007,None,287.6881858999841,None,right,0.23481430008541793,287.6881858999841,None,287.6881858999841,None,-6.796087206805578,150.69566035111862,test,001,2021_Apr_09_1011,AB_pic_singleT2,2020.2.10,59.99545233802225,
AB,lag4,4,5,9,0.06000000005000003,0.02,0.3,main,,,,,0,28,28,28,,,,,,,mrpotatohead.jpg,toyanimal05.jpg,bathtub.jpg,bridge.jpg,africanelephant.jpg,showerhead01.jpg,guitarcase.jpg,bowlingball.jpg,dandelion.jpg,lip.jpg,hockeypuck.jpg,callbell.jpg,redfox.jpg,bacon.jpg,tiger02.jpg,cloud.jpg,dragonfly01.jpg,,,,,0,1,11,,,,,.\resources\dandelion.jpg,,,1,,,,,,,,,1,,,,,,,,,None,292.9543642199598,None,292.9543642199598,None,,,,,,,287.9547870999668,290.70508629991673,290.4384357999079,None,0.05787859242790886,290.9379613000201,None,290.9379613000201,None,291.90453419997357,None,291.90453419997357,None,right,0.4343702000332996,291.90453419997357,None,292.70448680000845,None,left,0.2344920999603346,292.70448680000845,None,292.70448680000845,None,-6.744249885793707,150.73769644698896,test,001,2021_Apr_09_1011,AB_pic_singleT2,2020.2.10,59.99545233802225,
AB,lag3,3,4,7,0.06000000005000003,0.02,0.3,main,,,,,0,29,29,29,,,,,,,knee.jpg,toyanimal05.jpg,curtain.jpg,locker.jpg,raccoon.jpg,cymbal.jpg,microwave.jpg,skunk.jpg,handcuffs.jpg,crosscountryski.jpg,porcupine.jpg,penguin.jpg,bench01.jpg,statue.jpg,scooter.jpg,stool01.jpg,horse.jpg,,,,,1,0,9,,,,,.\resources\microwave.jpg,,,1,,,,,,,,,1,,,,,,,,,None,299.4539896199014,None,299.4539896199014,None,,,,,,,292.9711257999297,295.7209539000178,295.45429639995564,None,0.05415681142226808,295.9542555999942,None,295.9542555999942,None,296.7208784999093,None,296.7208784999093,None,left,0.6100613999878988,296.7208784999093,None,297.7208470000187,None,right,1.7140663999598473,297.7208470000187,None,297.7208470000187,None,-6.666028643229918,150.78122965034476,test,001,2021_Apr_09_1011,AB_pic_singleT2,2020.2.10,59.99545233802225,
AB,lag1,1,4,5,0.06000000005000003,0.02,0.3,main,,,,,0,30,30,30,,,,,,,porcupine.jpg,bullet.jpg,chainsaw.jpg,redfox.jpg,elbow.jpg,apron.jpg,helicopter.jpg,beaver.jpg,schoolbus.jpg,squid.jpg,floorlamp.jpg,recyclingbin.jpg,ear.jpg,leafblower01.jpg,knee.jpg,acorn.jpg,fishingrod.jpg,,,,,0,0,7,,,,,.\resources\elbow.jpg,,,1,,,,,,,,,1,,,,,,,,,None,305.52023561990353,None,305.52023561990353,None,,,,,,,299.4707045999821,302.2210158999078,301.9539155999664,None,0.05755218163795459,302.4538406999782,None,302.4538406999782,None,303.1042963999789,None,303.1042963999789,None,right,0.7226319999899715,303.1042963999789,None,304.2037412999198,None,right,1.287400900037028,304.2037412999198,None,304.2037412999198,None,-6.620201711156327,150.823993253862,test,001,2021_Apr_09_1011,AB_pic_singleT2,2020.2.10,59.99545233802225,
,,,,,,,,,,,,,,,,,,,,,,,parkingmeter.jpg,cannon.jpg,microwave.jpg,hammerheadshark.jpg,pooltable.jpg,lily.jpg,vulture.jpg,ducttape.jpg,xylophone.jpg,sledgehammer.jpg,bowlingball.jpg,jellyfish.jpg,bathtub.jpg,nose.jpg,beaver.jpg,cheetah.jpg,bowlingpin.jpg,,,,,,,,,,,,,,,,,,,,,,,,,,,,,,,,,,,,,,,,,,,,,,,,,,,,,,,,,,,,,,,,,,,,,,,,,,,,,
