trialType,cndTyp,lag,T1_loc,T2_loc,stimLen,isi,skipProb,phase,trials.thisRepN,trials.thisTrialN,trials.thisN,trials.thisIndex,trials2.thisRepN,trials2.thisTrialN,trials2.thisN,trials2.thisIndex,key_resp_4.keys,key_resp_4.rt,key_resp_4.started,key_resp_4.stopped,textbox.started,textbox.stopped,img0,img1,img2,img3,img4,img5,img6,img7,img8,img9,img10,img11,img12,img13,img14,img15,img16,option1.started,option1.stopped,text_2.started,text_2.stopped,skip1,skip2,lastPresent,displayPicture.started,displayPicture.stopped,polygon_2.started,polygon_2.stopped,opt1_t1,polygon_4.started,polygon_4.stopped,cor1,option1_t1.started,option1_t1.stopped,key_resp.keys,key_resp.rt,key_resp.started,key_resp.stopped,polygon_5.started,polygon_5.stopped,cor2,key_resp_2.keys,key_resp_2.rt,key_resp_2.started,key_resp_2.stopped,textbox_2.started,textbox_2.stopped,textbox_3.started,textbox_3.stopped,key_resp_3.keys,key_resp_3.started,key_resp_3.stopped,textbox_6.started,textbox_6.stopped,key_resp_7.keys,key_resp_7.rt,key_resp_7.started,key_resp_7.stopped,textbox_4.started,textbox_4.stopped,option1_3.started,option1_3.stopped,text_7.started,text_7.stopped,curStimTim,stimOFF0,stimON0,stimOFF1,stimON1,stimOFF2,stimON2,stimOFF3,stimON3,stimOFF4,stimON4,stimOFF5,stimON5,stimOFF6,stimON6,stimOFF7,stimON7,stimOFF8,stimON8,stimOFF9,stimON9,stimOFF10,stimON10,stimOFF11,stimON11,stimOFF12,stimON12,stimOFF13,stimON13,displayPicture_4.started,displayPicture_4.stopped,polygon_16.started,polygon_16.stopped,polygon_7.started,polygon_7.stopped,option1_t1_2.started,option1_t1_2.stopped,key_resp_6.keys,key_resp_6.rt,key_resp_6.started,key_resp_6.stopped,polygon_17.started,polygon_17.stopped,key_resp_8.keys,key_resp_8.rt,key_resp_8.started,key_resp_8.stopped,textbox_5.started,textbox_5.stopped,B0,B1,stimOFF14,stimON14,participant,session,date,expName,psychopyVersion,frameRate,
,,,,,,,,,,,,,,,,,space,1.3390467000426725,10.51719319995027,None,,,,,,,,,,,,,,,,,,,,,,,,,,,,,,,,,,,,,,,,,,,,,,,,,,,,,,,,,,,,,,,,,,,,,,,,,,,,,,,,,,,,,,,,,,,,,,,,,,,,,,,,,,,,,,,,,,,,,,,,test,001,2021_Apr_09_1026,AB_pic_singleT2,2020.2.10,60.01453549144442,
AB,lag7,7,5,12,0.2,0.05,0.5,,0,0,0,7,,,,,,,,,10.51719319995027,None,redfox.jpg,basketball01.jpg,drumset.jpg,recyclingbin.jpg,uprightpiano01.jpg,badmintonracket.jpg,sink.jpg,whiteout.jpg,squirrel.jpg,wheelbarrow01.jpg,bull.jpg,lion.jpg,cashregister01.jpg,ipad02.jpg,horse.jpg,mummy.jpg,microwave.jpg,11.921768000000156,14.671113400021568,14.404502199962735,None,1,0,14,14.887815400026739,None,14.887815400026739,None,.\resources\lion.jpg,18.654223799938336,None,1,18.654223799938336,None,left,1.8420486999675632,18.654223799938336,None,20.52077800000552,None,1,right,0.26345209998544306,20.52077800000552,None,20.52077800000552,None,20.82074959995225,None,None,21.820704819983803,None,21.820704819983803,None,,,,,,,,,,,,,,,,,,,,,,,,,,,,,,,,,,,,,,,,,,,,,,,,,,,,,,,,,,,,,,,,test,001,2021_Apr_09_1026,AB_pic_singleT2,2020.2.10,60.01453549144442,
AB,lag1,1,3,4,0.2,0.05,0.5,,0,1,1,3,,,,,,,,,,,motorcycle.jpg,pig.jpg,hulahoop.jpg,key07.jpg,giraffe.jpg,coffeemaker.jpg,tree.jpg,trampoline.jpg,tennisracket.jpg,jellyfish.jpg,butterfly.jpg,church.jpg,stool01.jpg,spear02.jpg,ladder.jpg,mrpotatohead.jpg,turnstile.jpg,21.820644399966113,24.570983599987812,24.304306100006215,None,0,1,6,24.82096869999077,None,24.82096869999077,None,.\resources\key07.jpg,26.570391200017184,None,1,26.570391200017184,None,right,0.8378090000478551,26.570391200017184,None,27.453645000001416,None,1,left,0.2265202000271529,27.453645000001416,None,27.453645000001416,None,27.703659899998456,None,None,28.703356619924307,None,28.703356619924307,None,,,,,,,,,,,,,,,,,,,,,,,,,,,,,,,,,,,,,,,,,,,,,,,,,,,,,,,,,,,,,,,,test,001,2021_Apr_09_1026,AB_pic_singleT2,2020.2.10,60.01453549144442,
AB,lag3,3,3,6,0.2,0.05,0.5,,0,2,2,5,,,,,,,,,,,birdnest.jpg,mrpotatohead.jpg,curtain.jpg,butterfly.jpg,nosmokingsign.jpg,safe.jpg,mattress.jpg,cobra.jpg,witchhat.jpg,bowlingball.jpg,lion.jpg,alligator.jpg,knee.jpg,cheetah.jpg,foosballtable.jpg,penguin.jpg,porcupine.jpg,28.70333439996466,31.453420499921776,31.18674859998282,None,1,1,8,31.68675519991666,None,31.68675519991666,None,.\resources\safe.jpg,33.93635740003083,None,1,33.93635740003083,None,left,0.8879757999675348,33.93635740003083,None,34.85292949993163,None,1,left,0.21941260003950447,34.85292949993163,None,34.85292949993163,None,35.102945199934766,None,None,36.102850119932555,None,36.102850119932555,None,,,,,,,,,,,,,,,,,,,,,,,,,,,,,,,,,,,,,,,,,,,,,,,,,,,,,,,,,,,,,,,,test,001,2021_Apr_09_1026,AB_pic_singleT2,2020.2.10,60.01453549144442,
AB,lag5,5,4,9,0.2,0.05,0.5,,0,3,3,11,,,,,,,,,,,shovel01.jpg,horseshoe.jpg,uprightpiano01.jpg,church.jpg,mrpotatohead.jpg,chimney.jpg,tire.jpg,waterfall.jpg,platypus.jpg,birdhouse.jpg,dalmatian.jpg,foosballtable.jpg,surfboard.jpg,birdfeeder.jpg,dormer.jpg,flamingo.jpg,cross01.jpg,36.10286179999821,38.85296309995465,38.586298599955626,None,1,1,11,39.086249099927954,None,39.086249099927954,None,.\resources\platypus.jpg,42.08583009999711,None,1,42.08583009999711,None,left,0.858442600001581,42.08583009999711,None,42.96910809993278,None,1,left,0.19905430008657277,42.96910809993278,None,42.96910809993278,None,43.18573499994818,None,None,44.185692419996485,None,44.185692419996485,None,,,,,,,,,,,,,,,,,,,,,,,,,,,,,,,,,,,,,,,,,,,,,,,,,,,,,,,,,,,,,,,,test,001,2021_Apr_09_1026,AB_pic_singleT2,2020.2.10,60.01453549144442,
AB,lag1,1,4,5,0.2,0.05,0.5,,0,4,4,12,,,,,,,,,,,giraffe.jpg,nosmokingsign.jpg,bathtub.jpg,tire.jpg,nose.jpg,tricycle.jpg,tiger02.jpg,fingerprint.jpg,cupcake.jpg,zipper.jpg,statue.jpg,birdnest.jpg,bacon.jpg,jellybean.jpg,guitarcase.jpg,totempole.jpg,stool01.jpg,44.20234109996818,46.952389699989,46.68574699992314,None,0,0,7,47.18572549999226,None,47.18572549999226,None,.\resources\nose.jpg,49.185329400002956,None,1,49.185329400002956,None,right,0.42295959999319166,49.185329400002956,None,49.635268299956806,None,1,right,0.2609931000042707,49.635268299956806,None,49.635268299956806,None,49.918704899959266,None,None,50.91854841995519,None,50.91854841995519,None,,,,,,,,,,,,,,,,,,,,,,,,,,,,,,,,,,,,,,,,,,,,,,,,,,,,,,,,,,,,,,,,test,001,2021_Apr_09_1026,AB_pic_singleT2,2020.2.10,60.01453549144442,
AB,lag2,2,3,5,0.2,0.05,0.5,,0,5,5,4,,,,,,,,,,,acousticguitar02.jpg,leafblower01.jpg,electricguitar01.jpg,punchingbag.jpg,anchor.jpg,bat.jpg,parachute.jpg,icecube02.jpg,marble.jpg,whiteout.jpg,waterfall.jpg,cobra.jpg,birdnest.jpg,cactus.jpg,worldmap.jpg,tire.jpg,stool01.jpg,50.918572399998084,53.668857599957846,53.418860899982974,None,0,1,7,53.91881319996901,None,53.91881319996901,None,.\resources\anchor.jpg,55.93506689998321,None,1,55.93506689998321,None,right,0.4331972000654787,55.93506689998321,None,56.385034299921244,None,1,left,0.21520279999822378,56.385034299921244,None,56.385034299921244,None,56.61837679997552,None,None,57.6183513199212,None,57.6183513199212,None,,,,,,,,,,,,,,,,,,,,,,,,,,,,,,,,,,,,,,,,,,,,,,,,,,,,,,,,,,,,,,,,test,001,2021_Apr_09_1026,AB_pic_singleT2,2020.2.10,60.01453549144442,
AB,lag4,4,3,7,0.2,0.05,0.5,,0,6,6,1,,,,,,,,,,,jellybean.jpg,electrictoothbrush01c.jpg,dalmatian.jpg,zipper.jpg,discoball.jpg,parkfountain.jpg,sheep.jpg,noparkingsign.jpg,tie02.jpg,urinal.jpg,donut.jpg,alligator.jpg,jackrabbit.jpg,cork02.jpg,cigar.jpg,bathtub.jpg,brownsugar.jpg,57.63503170001786,60.385383900022134,60.11866639996879,None,1,0,9,60.635396700003184,None,60.635396700003184,None,.\resources\sheep.jpg,63.13466839992907,None,1,63.13466839992907,None,left,0.30567710008472204,63.13466839992907,None,63.46792620001361,None,1,right,0.14823880000039935,63.46792620001361,None,63.46792620001361,None,63.634619800024666,None,None,64.63454301992897,None,64.63454301992897,None,,,,,,,,,,,,,,,,,,,,,,,,,,,,,,,,,,,,,,,,,,,,,,,,,,,,,,,,,,,,,,,,test,001,2021_Apr_09_1026,AB_pic_singleT2,2020.2.10,60.01453549144442,
AB,lag5,5,4,9,0.2,0.05,0.5,,0,7,7,6,,,,,,,,,,,coffeemaker.jpg,fridge.jpg,electricguitar01.jpg,harmonica.jpg,nosmokingsign.jpg,acousticguitar02.jpg,waterfountain02.jpg,platypus.jpg,toad.jpg,surfboard.jpg,birdhouse.jpg,waterfall.jpg,bacon.jpg,spear02.jpg,motorcycle.jpg,treadmill.jpg,windmill.jpg,64.65121629997157,67.40149530000053,67.11813790001906,None,0,0,11,67.63483979995362,None,67.63483979995362,None,.\resources\toad.jpg,70.63415910000913,None,1,70.63415910000913,None,right,0.3420272000366822,70.63415910000913,None,71.00080089992844,None,1,right,0.17536520003341138,71.00080089992844,None,71.00080089992844,None,71.20078620000277,None,None,72.20073381997645,None,72.20073381997645,None,,,,,,,,,,,,,,,,,,,,,,,,,,,,,,,,,,,,,,,,,,,,,,,,,,,,,,,,,,,,,,,,test,001,2021_Apr_09_1026,AB_pic_singleT2,2020.2.10,60.01453549144442,
AB,lag6,6,5,11,0.2,0.05,0.5,,0,8,8,0,,,,,,,,,,,grizzly.jpg,crab01.jpg,stool01.jpg,greywolf.jpg,discoball.jpg,jellybean.jpg,christmastree.jpg,seagull.jpg,tortoise01.jpg,lollipop04.jpg,bluecheese.jpg,church.jpg,acorn.jpg,accordion01.jpg,cobra.jpg,cymbal.jpg,triangle.jpg,72.21739409992006,74.96773029991891,74.70103619992733,None,0,0,13,75.20052229997236,None,75.20052229997236,None,.\resources\bluecheese.jpg,78.71696699992754,None,1,78.71696699992754,None,right,0.3792260999325663,78.71696699992754,None,79.11693959997501,None,1,right,0.1554308000486344,79.11693959997501,None,79.11693959997501,None,79.30028949992266,None,None,80.30018891999498,None,80.30018891999498,None,,,,,,,,,,,,,,,,,,,,,,,,,,,,,,,,,,,,,,,,,,,,,,,,,,,,,,,,,,,,,,,,test,001,2021_Apr_09_1026,AB_pic_singleT2,2020.2.10,60.01453549144442,
AB,lag7,7,4,11,0.2,0.05,0.5,,0,9,9,2,,,,,,,,,,,armadillo.jpg,shower.jpg,anchor.jpg,recyclingbin.jpg,basketball01.jpg,pooltable.jpg,christmaslights.jpg,bluejay.jpg,bench01.jpg,kiwi03.jpg,totempole.jpg,pirateflag.jpg,nose.jpg,tennisracket.jpg,mattress.jpg,ceilingfan01.jpg,cobra.jpg,80.31686090002768,83.06715759995859,82.78387779998593,None,1,0,13,83.2833299000049,None,83.2833299000049,None,.\resources\totempole.jpg,86.79974819999188,None,1,86.79974819999188,None,left,0.3924465000163764,86.79974819999188,None,87.23307640000712,None,1,right,0.13511290005408227,87.23307640000712,None,87.23307640000712,None,87.39973089995328,None,None,88.3996942199301,None,88.3996942199301,None,,,,,,,,,,,,,,,,,,,,,,,,,,,,,,,,,,,,,,,,,,,,,,,,,,,,,,,,,,,,,,,,test,001,2021_Apr_09_1026,AB_pic_singleT2,2020.2.10,60.01453549144442,
AB,lag2,2,5,7,0.2,0.05,0.5,,0,10,10,9,,,,,,,,,,,scooter.jpg,sink.jpg,cocktailshrimp02.jpg,doghouse.jpg,funnel.jpg,banjo.jpg,toad.jpg,spiderweb.jpg,drumset.jpg,coffeemaker.jpg,slug.jpg,platypus.jpg,daddylonglegs.jpg,wheelchair.jpg,worldmap.jpg,humanskeleton.jpg,tennisracket.jpg,88.41632640000898,91.16664720000699,90.88332159991842,None,0,0,9,91.39994779997505,None,91.39994779997505,None,.\resources\toad.jpg,93.89930990000721,None,1,93.89930990000721,None,right,0.31684840004891157,93.89930990000721,None,94.23261529998854,None,1,right,0.15957220003474504,94.23261529998854,None,94.23261529998854,None,94.43261239991989,None,None,95.43257442000322,None,95.43257442000322,None,,,,,,,,,,,,,,,,,,,,,,,,,,,,,,,,,,,,,,,,,,,,,,,,,,,,,,,,,,,,,,,,test,001,2021_Apr_09_1026,AB_pic_singleT2,2020.2.10,60.01453549144442,
AB,lag3,3,5,8,0.2,0.05,0.5,,0,11,11,10,,,,,,,,,,,snowshovel.jpg,basketball01.jpg,microwave.jpg,tree.jpg,squid.jpg,grizzly.jpg,toilet.jpg,moose.jpg,mailbox02.jpg,showerhead01.jpg,kneepad01c.jpg,anchor.jpg,cloud.jpg,sink.jpg,car.jpg,lightswitch01.jpg,sheep.jpg,95.44923439994454,98.19947869994212,97.93284379993565,None,0,0,10,98.4494908999186,None,98.4494908999186,None,.\resources\moose.jpg,101.19887770002242,None,1,101.19887770002242,None,right,0.3053150000050664,101.19887770002242,None,101.54881680000108,None,1,right,0.1235471999971196,101.54881680000108,None,101.54881680000108,None,101.71550509997178,None,None,102.71541402000003,None,102.71541402000003,None,,,,,,,,,,,,,,,,,,,,,,,,,,,,,,,,,,,,,,,,,,,,,,,,,,,,,,,,,,,,,,,,test,001,2021_Apr_09_1026,AB_pic_singleT2,2020.2.10,60.01453549144442,
AB,lag6,6,5,11,0.2,0.05,0.5,,0,12,12,8,,,,,,,,,,,golfball.jpg,waterfall.jpg,platypus.jpg,mouse.jpg,cashregister01.jpg,hockeystick.jpg,dragonfly01.jpg,sheep.jpg,butterfly.jpg,accordion01.jpg,uprightpiano01.jpg,basketball01.jpg,spear02.jpg,armadillo.jpg,ipad02.jpg,cross01.jpg,seal.jpg,102.71542659995612,105.46571679995395,105.19904829992447,None,1,0,13,105.69855009997264,None,105.69855009997264,None,.\resources\uprightpiano01.jpg,109.21500139997806,None,1,109.21500139997806,None,left,0.35339449997991323,109.21500139997806,None,109.59827989991754,None,1,right,0.10588520008604974,109.59827989991754,None,109.59827989991754,None,109.74827209999785,None,None,110.74826071993448,None,110.74826071993448,None,,,,,,,,,,,,,,,,,,,,,,,,,,,,,,,,,,,,,,,,,,,,,,,,,,,,,,,,,,,,,,,,test,001,2021_Apr_09_1026,AB_pic_singleT2,2020.2.10,60.01453549144442,
AB,lag4,4,4,8,0.2,0.05,0.5,,0,13,13,13,,,,,,,,,,,toolbox02.jpg,cocktailshrimp02.jpg,bench01.jpg,licenseplate.jpg,vulture.jpg,bullet.jpg,kneepad01c.jpg,christmastree.jpg,honeybee.jpg,duck01.jpg,mouse.jpg,fridge.jpg,ceilingfan01.jpg,guitarcase.jpg,peacock.jpg,grizzly.jpg,soccerball.jpg,110.76487810001709,113.51471339992713,113.24809170002118,None,0,1,10,113.76467309996951,None,113.76467309996951,None,.\resources\christmastree.jpg,116.51454439992085,None,1,116.51454439992085,None,right,0.7577917999587953,116.51454439992085,None,117.2977758999914,None,1,left,0.14248859998770058,117.2977758999914,None,117.2977758999914,None,117.46447220002301,None,None,118.4643569199834,None,118.4643569199834,None,,,,,,,,,,,,,,,,,,,,,,,,,,,,,,,,,,,,,,,,,,,,,,,,,,,,,,,,,,,,,,,,test,001,2021_Apr_09_1026,AB_pic_singleT2,2020.2.10,60.01453549144442,
,,,,,,,,,,,,,,,,,,,,,,,,,,,,,,,,,,,,,,,,,,,,,,,,,,,,,,,,,,,,,,,,,,,,,,,,,,,,,space,1.2304558999603614,118.46436099999119,None,,,,,,,,,,,,,,,,,,,,,,,,,,,,,,,,,,,,,,,,,,,,,,,,,,,,,,,,,,,,test,001,2021_Apr_09_1026,AB_pic_singleT2,2020.2.10,60.01453549144442,
AB,lag6,6,5,11,0.2,0.05,0.5,ramp,,,,,0,0,0,0,,,,,,,spear02.jpg,pingpongtable.jpg,acousticguitar02.jpg,waterfountain02.jpg,ipad02.jpg,horseshoe.jpg,cow.jpg,statue.jpg,nunchuk.jpg,christmastree.jpg,locker.jpg,stubbywrench01a.jpg,fishskeleton.jpg,stool01.jpg,dromedary.jpg,raccoon.jpg,drumset.jpg,,,,,0,0,13,,,,,.\resources\locker.jpg,,,1,,,,,,,,,1,,,,,,,,,None,126.93049722001888,None,126.93049722001888,None,,,,,118.46436099999119,None,119.76433719997294,122.51457559992559,122.24791529995855,None,0.2,0.2156910999910906,0.26569500006735325,0.46608370007015765,0.5160646999720484,0.7156586999772117,0.7656252000015229,0.9655846999958158,1.015637999982573,1.2155969999730587,1.2656477000564337,1.465612699976191,1.515546099981293,1.7155517999781296,1.765572200063616,1.9655776000581682,2.0155479999957606,2.2154904999770224,2.265475400025025,2.4654663000255823,2.5154726000037044,2.7155069999862462,2.7654930000426248,2.9654616999905556,3.015490400022827,3.2154232000466436,3.265412800014019,3.465417300001718,3.515408099978231,122.74787780002225,None,122.74787780002225,None,126.26386219996493,None,126.26386219996493,None,right,0.44834650005213916,126.26386219996493,None,126.74717570003122,None,right,0.1570886999834329,126.74717570003122,None,126.74717570003122,None,,,,,test,001,2021_Apr_09_1026,AB_pic_singleT2,2020.2.10,60.01453549144442,
AB,lag4,4,4,8,0.19066666667,0.046667,0.48,ramp,,,,,0,1,1,1,,,,,,,crosscountryski.jpg,cheetah.jpg,saltshaker03a.jpg,stool01.jpg,tank.jpg,ladder.jpg,bullet.jpg,birdhouse.jpg,handcuffs.jpg,foldingchair.jpg,beaver.jpg,kite.jpg,moose.jpg,elbow.jpg,masquerademask01.jpg,steeringwheel.jpg,trumpet.jpg,,,,,1,0,10,,,,,.\resources\birdhouse.jpg,,,1,,,,,,,,,1,,,,,,,,,None,133.41336703998968,None,133.41336703998968,None,,,,,,,126.94715130003169,129.69743669999298,129.43079399992712,None,0.19066666667,0.19698010000865906,0.247499700053595,0.4303910000016913,0.4802927999990061,0.6803910000016913,0.7136223000707105,0.9135988000780344,0.9635970999952406,1.1469225999899209,1.1969664000207558,1.3802359000546858,1.4303100000834092,1.630292300018482,1.663559200009331,1.8635431000730023,1.9135378000792116,2.096862700069323,2.1468550000572577,2.3302812000038102,2.3801703000208363,2.5802231000270694,2.613487199996598,,,,,,,129.94740699999966,None,129.94740699999966,None,132.5634414999513,None,132.5634414999513,None,left,0.5008244999917224,132.5634414999513,None,133.0800710999174,None,right,0.12030910002067685,133.0800710999174,None,133.0800710999174,None,-10.004528787510308,150.00000014183738,,,test,001,2021_Apr_09_1026,AB_pic_singleT2,2020.2.10,60.01453549144442,
AB,lag7,7,4,11,0.18133333334,0.043334,0.45999999999999996,ramp,,,,,0,2,2,2,,,,,,,apron.jpg,urinal.jpg,cymbal.jpg,athleticsock.jpg,lollipop04.jpg,shower.jpg,showerhead01.jpg,masquerademask01.jpg,arrow02.jpg,sword01.jpg,shovel01.jpg,parachute.jpg,foot.jpg,lawnmower.jpg,cactus.jpg,dromedary.jpg,greatwhiteshark.jpg,,,,,0,1,13,,,,,.\resources\shovel01.jpg,,,1,,,,,,,,,1,,,,,,,,,None,140.3796014599502,None,140.3796014599502,None,,,,,,,133.4300478999503,136.18035129993223,135.91371240001172,None,0.18133333334,0.19776180002372712,0.2306594999972731,0.41398780001327395,0.46397679997608066,0.6477196000050753,0.6811537999892607,0.863949800026603,0.9139721000101417,1.0806385000469163,1.1305783999850973,1.3138819000450894,1.3638745000353083,1.5305271999677643,1.5805293000303209,1.7639713999815285,1.8139135000528768,1.9805381000041962,2.030539899948053,2.213888099999167,2.2471970999613404,2.4304963999893516,2.480612499988638,2.6638233000412583,2.697200100054033,2.88047319999896,2.9304594000568613,3.1137813000241295,3.147148299962282,136.41320109996013,None,136.41320109996013,None,139.57968610001262,None,139.57968610001262,None,right,0.4764931999379769,139.57968610001262,None,140.0796219999902,None,left,0.07316110003739595,140.0796219999902,None,140.0796219999902,None,-10.009036191361307,150.0000004569304,,,test,001,2021_Apr_09_1026,AB_pic_singleT2,2020.2.10,60.01453549144442,
AB,lag5,5,5,10,0.17200000001000001,0.040000999999999995,0.43999999999999995,ramp,,,,,0,3,3,3,,,,,,,xylophone.jpg,parkfountain.jpg,dalmatian.jpg,helicopter.jpg,greathornowl.jpg,bed.jpg,cruiseship.jpg,swordfish.jpg,schoolbus.jpg,christmaslights.jpg,microphone01.jpg,bathtub.jpg,telescope.jpg,shovel01.jpg,rose.jpg,kiwi03.jpg,squid.jpg,,,,,1,0,12,,,,,.\resources\christmaslights.jpg,,,1,,,,,,,,,1,,,,,,,,,None,147.07914086000528,None,147.07914086000528,None,,,,,,,140.39631039998494,143.14654789993074,142.86323979997542,None,0.17200000001000001,0.181208600057289,0.2145627000136301,0.398292800062336,0.4311435000272468,0.5983185000950471,0.6478330000536516,0.8145327999955043,0.8482588999904692,1.0311151000205427,1.064504300011322,1.2477580000413582,1.2810875000432134,1.4477352000540122,1.4977853000164032,1.6643949000863358,1.6977248000912368,1.8810470000607893,1.9144479000242427,2.0810310000088066,2.1310358000919223,2.2976803000783548,2.3476832000305876,2.5144217000342906,2.5476657000835985,2.731000000028871,2.7643926000455394,,,143.3627681999933,None,143.3627681999933,None,146.14602420001756,None,146.14602420001756,None,left,0.550147800007835,146.14602420001756,None,146.72919179999735,None,right,0.11904829996638,146.72919179999735,None,146.72919179999735,None,-10.0135202605149,150.00000130248094,,,test,001,2021_Apr_09_1026,AB_pic_singleT2,2020.2.10,60.01453549144442,
AB,lag2,2,3,5,0.16266666668000002,0.03666799999999999,0.41999999999999993,ramp,,,,,0,4,4,4,,,,,,,lion.jpg,moon.jpg,cocktailshrimp02.jpg,pigeon.jpg,electrictoothbrush01c.jpg,africanelephant.jpg,birdhouse.jpg,platypus.jpg,toad.jpg,elbow.jpg,baseballbat.jpg,horseshoe.jpg,motorcycle.jpg,nunchuk.jpg,calendar.jpg,stool01.jpg,doghouse.jpg,,,,,1,1,7,,,,,.\resources\electrictoothbrush01c.jpg,,,1,,,,,,,,,1,,,,,,,,,None,153.02874435996637,None,153.02874435996637,None,,,,,,,147.09586519992445,149.84567199996673,149.57904290000442,None,0.16266666668000002,0.16393410007003695,0.21398990007583052,0.36394330009352416,0.4139541999902576,0.5639528000028804,0.6139283000957221,0.7639234000816941,0.8139196999836713,0.9639126000693068,0.9973220000974834,1.1639047000790015,1.1971980000380427,1.3638826000969857,1.397290900000371,1.563868400058709,1.5972024000948295,,,,,,,,,,,,,150.09564319998026,None,150.09564319998026,None,151.69553269993048,None,151.69553269993048,None,left,0.9287273000227287,151.69553269993048,None,152.66213640000205,None,left,0.13803839997854084,152.66213640000205,None,152.66213640000205,None,-10.017973892205525,150.00000383248582,,,test,001,2021_Apr_09_1026,AB_pic_singleT2,2020.2.10,60.01453549144442,
AB,lag3,3,5,8,0.15333333335000002,0.03333499999999999,0.3999999999999999,ramp,,,,,0,5,5,5,,,,,,,tortoise01.jpg,ostrich.jpg,floorlamp.jpg,birdfeeder.jpg,volleyball.jpg,elbow.jpg,bowlingpin.jpg,pigeon.jpg,snowshoe.jpg,triangle.jpg,dormer.jpg,bow.jpg,panda.jpg,spicerack.jpg,harmonica.jpg,parachute.jpg,trampoline.jpg,,,,,0,0,10,,,,,.\resources\pigeon.jpg,,,1,,,,,,,,,1,,,,,,,,,None,159.0449843798997,None,159.0449843798997,None,,,,,,,153.04549019993283,155.79531790001784,155.52867529995274,None,0.15333333335000002,0.1644776000175625,0.1977397999726236,0.347758200019598,0.381049899966456,0.5310606999555603,0.5643802999984473,0.7143613999942318,0.747736299992539,0.9143209999892861,0.9476584999356419,1.097732299938798,1.1310011999448761,1.2809315000195056,1.314296199940145,1.4643442999804392,1.497696099919267,1.6476467999164015,1.6810032000066712,1.847641099942848,1.8809574999613687,2.0309183999197558,2.0643074999097735,,,,,,,156.0286445999518,None,156.0286445999518,None,158.11186529998668,None,158.11186529998668,None,right,0.5205400000559166,158.11186529998668,None,158.67840380000416,None,right,0.12179899995680898,158.67840380000416,None,158.67840380000416,None,-10.022371797059314,150.0000118512837,,,test,001,2021_Apr_09_1026,AB_pic_singleT2,2020.2.10,60.01453549144442,
AB,lag1,1,4,5,0.14400000002000002,0.03000199999999999,0.3799999999999999,ramp,,,,,0,6,6,6,,,,,,,windshieldwiper02.jpg,saltshaker03a.jpg,tent.jpg,daddylonglegs.jpg,football.jpg,kneepad01c.jpg,bacon.jpg,leafrake.jpg,wheelchair.jpg,englishcucumber.jpg,kite.jpg,tulip02.jpg,baseballbat.jpg,dalmatian.jpg,bluecheese.jpg,parachute.jpg,alligator.jpg,,,,,0,0,7,,,,,.\resources\football.jpg,,,1,,,,,,,,,1,,,,,,,,,None,164.2780166999437,None,164.2780166999437,None,,,,,,,159.06172390002757,161.8115304999519,161.54493550001644,None,0.14400000002000002,0.14711270004045218,0.18043589999433607,0.3308863000711426,0.3637006999924779,0.4974688000511378,0.5309256000909954,0.6808011000975966,0.6970845001051202,0.8470691000111401,0.880823300103657,1.0307995000621304,1.0470519000664353,1.1974419000325724,1.2303062001010403,1.3636321000522003,1.3970278000924736,,,,,,,,,,,,,162.06152909994125,None,162.06152909994125,None,163.46148840000387,None,163.46148840000387,None,right,0.4267138000577688,163.46148840000387,None,163.9114288999699,None,right,0.11283780005760491,163.9114288999699,None,163.9114288999699,None,-10.0266234094996,150.00003808371764,,,test,001,2021_Apr_09_1026,AB_pic_singleT2,2020.2.10,60.01453549144442,
AB,lag6,6,5,11,0.13466666669000002,0.02666899999999999,0.3599999999999999,ramp,,,,,0,7,7,7,,,,,,,whiteout.jpg,tie02.jpg,cashregister01.jpg,bridge.jpg,sledgehammer.jpg,masquerademask01.jpg,pig.jpg,wheelbarrow01.jpg,trampoline.jpg,nunchuk.jpg,kite.jpg,discoball.jpg,humanskeleton.jpg,punchingbag.jpg,safe.jpg,crosscountryski.jpg,holdfast.jpg,,,,,0,1,13,,,,,.\resources\kite.jpg,,,1,,,,,,,,,1,,,,,,,,,None,170.47756687994115,None,170.47756687994115,None,,,,,,,164.29518050001934,167.04456439998467,166.77787109999917,None,0.13466666669000002,0.14760069991461933,0.1638502998976037,0.29756380000617355,0.33044469996821135,0.4642311999341473,0.49763439991511405,0.6304232999682426,0.6475605999585241,0.7808905999409035,0.8142241999739781,0.9475793999154121,0.9803670999826863,1.1137135999742895,1.1303876999299973,1.2804371999809518,1.2971050000051036,1.4304316999623552,1.4637253999244422,1.5971226999536157,1.6137758999830112,1.7637403999688104,1.7803655999014154,1.9136697999201715,1.946992599987425,2.080390299903229,2.113725999952294,2.246973800007254,2.2637021999107674,167.27784250001423,None,167.27784250001423,None,169.5610453999834,None,169.5610453999834,None,right,0.5032206000760198,169.5610453999834,None,170.1109917999711,None,left,0.1211922001093626,170.1109917999711,None,170.1109917999711,None,-10.030400865469566,150.00012551120884,,,test,001,2021_Apr_09_1026,AB_pic_singleT2,2020.2.10,60.01453549144442,
AB,lag3,3,4,7,0.12533333336000002,0.023335999999999992,0.33999999999999986,ramp,,,,,0,8,8,8,,,,,,,arrow02.jpg,honeybee.jpg,table01.jpg,hammerheadshark.jpg,saxophone.jpg,firehydrant.jpg,seagull.jpg,bed.jpg,treadmill.jpg,eye.jpg,windmill.jpg,tank.jpg,tiger02.jpg,sword01.jpg,giraffe.jpg,fishskeleton.jpg,ant.jpg,,,,,0,0,9,,,,,.\resources\seagull.jpg,,,1,,,,,,,,,1,,,,,,,,,None,175.81051329988986,None,175.81051329988986,None,,,,,,,170.49432109994814,173.2440908999415,172.97751240001526,None,0.12533333336000002,0.13154539989773184,0.16483399993740022,0.2815308999270201,0.2982401999179274,0.43152649991679937,0.4481565000023693,0.5814627999207005,0.5981083998922259,0.7314380999887362,0.7481214998988435,0.8814193999860436,0.8980945999501273,1.0314835999161005,1.0481106999795884,1.181474299984984,1.1980670999037102,1.3147642998956144,1.3480790999019518,1.4647734999889508,1.4980957999359816,,,,,,,,,173.47746039996855,None,173.47746039996855,None,174.99405149999075,None,174.99405149999075,None,right,0.4221495999954641,174.99405149999075,None,175.46068449993618,None,right,0.09958999999798834,175.46068449993618,None,175.46068449993618,None,-10.032506214951274,150.00042003234202,,,test,001,2021_Apr_09_1026,AB_pic_singleT2,2020.2.10,60.01453549144442,
AB,lag4,4,4,8,0.11600000003000002,0.020002999999999993,0.31999999999999984,ramp,,,,,0,9,9,9,,,,,,,popcorn.jpg,pooltable.jpg,helicopter.jpg,bat.jpg,coffeemaker.jpg,ostrich.jpg,stool01.jpg,moose.jpg,cashregister01.jpg,firehydrant.jpg,trampoline.jpg,humanskeleton.jpg,telescope.jpg,nosmokingsign.jpg,crown.jpg,skunk.jpg,wheelbarrow01.jpg,,,,,1,1,10,,,,,.\resources\moose.jpg,,,1,,,,,,,,,1,,,,,,,,,None,181.51017871999647,None,181.51017871999647,None,,,,,,,175.82732849998865,178.57712769997306,178.293786299997,None,0.11600000003000002,0.1311379000544548,0.14775260002352297,0.26449309999588877,0.2810784000903368,0.39776150009129196,0.4144129001069814,0.5310891000553966,0.5477373000467196,0.6644615000113845,0.6810778001090512,0.7977726000826806,0.8311418000375852,0.9477098000934348,0.9644512000959367,1.0810428000986576,1.0977004000451416,1.21443450008519,1.2310283000115305,1.3477326000574976,1.3644576000515372,1.481010700110346,1.4976785000180826,,,,,,,178.810448299977,None,178.810448299977,None,180.31029139994644,None,180.31029139994644,None,left,0.7619144999189302,180.31029139994644,None,181.09362029994372,None,left,0.14660970005206764,181.09362029994372,None,181.09362029994372,None,-10.028549770678609,150.0014153295362,,,test,001,2021_Apr_09_1026,AB_pic_singleT2,2020.2.10,60.01453549144442,
AB,lag5,5,4,9,0.10666666670000002,0.016669999999999994,0.2999999999999998,ramp,,,,,0,10,10,10,,,,,,,noparkingsign.jpg,bench01.jpg,skateboard.jpg,flamingo.jpg,zebra.jpg,fortunecookie.jpg,vacuumcleaner01.jpg,worldmap.jpg,licenseplate.jpg,fishingrod.jpg,slug.jpg,horseshoe.jpg,christmaslights.jpg,tiger02.jpg,duck01.jpg,toucan.jpg,firehydrant.jpg,,,,,0,0,11,,,,,.\resources\licenseplate.jpg,,,1,,,,,,,,,0,,,,,,,,,None,192.30950521992054,None,192.30950521992054,None,,,,,,,181.52692109998316,184.2771977999946,184.01057239994407,None,0.10666666670000002,0.11406439996790141,0.13072599994484335,0.23112579993903637,0.2480253999819979,0.36449599999468774,0.38114329997915775,0.4811424999497831,0.4973972999723628,0.6140515999868512,0.6313807999249548,0.7311129999579862,0.747302099945955,0.847389500006102,0.86399139999412,0.9806197999278083,0.9973565998952836,1.097359100007452,1.1139990999363363,1.2306757000042126,1.2473508999682963,1.347366499947384,1.3639644999057055,1.463920999900438,1.4805906999390572,,,,,184.51007129997015,None,184.51007129997015,None,186.0099518999923,None,186.0099518999923,None,right,0.35824039997532964,186.0099518999923,None,186.39322630001698,None,left,5.639295300003141,186.39322630001698,None,186.39322630001698,None,-10.002711304331388,150.00474096888158,,,test,001,2021_Apr_09_1026,AB_pic_singleT2,2020.2.10,60.01453549144442,
AB,lag2,2,3,5,0.09733333337000002,0.013336999999999995,0.3,ramp,,,,,0,11,11,11,,,,,,,dartboard.jpg,statue.jpg,hand01b.jpg,grizzly.jpg,schoolbus.jpg,zipper.jpg,nose.jpg,curtain.jpg,spiderweb.jpg,beaver.jpg,golfball.jpg,surfboard.jpg,nosmokingsign.jpg,zebra.jpg,mrpotatohead.jpg,motorcycle.jpg,englishcucumber.jpg,,,,,0,0,7,,,,,.\resources\schoolbus.jpg,,,1,,,,,,,,,1,,,,,,,,,None,197.4924750200007,None,197.4924750200007,None,,,,,,,192.32624259998556,195.07651549996808,194.80985959991813,None,0.09733333337000002,0.09779989998787642,0.11457209999207407,0.21446080005262047,0.23071709997020662,0.3307712000096217,0.3479474999476224,0.431120999972336,0.4477847999660298,0.5473350000102073,0.5644549999851733,0.6644330000272021,0.6810961000155658,0.7644349000183865,0.7806963999755681,0.8806595000205562,0.8977461999747902,,,,,,,,,,,,,195.32648219994735,None,195.32648219994735,None,196.22642489999998,None,196.22642489999998,None,right,0.82177529996261,196.22642489999998,None,197.0926154999761,None,right,0.1235469999955967,197.0926154999761,None,197.0926154999761,None,-9.902411781377504,150.01529033100186,,,test,001,2021_Apr_09_1026,AB_pic_singleT2,2020.2.10,60.01453549144442,
AB,lag1,1,4,5,0.08800000004000003,0.010003999999999996,0.3,ramp,,,,,0,12,12,12,,,,,,,acousticguitar02.jpg,pingpongtable.jpg,mummy.jpg,treadmill.jpg,elbow.jpg,spicerack.jpg,saxophone.jpg,alligator.jpg,cloud.jpg,drumstick.jpg,parkingmeter.jpg,penguin.jpg,pokerchips.jpg,hotdogweiner.jpg,calendar.jpg,ladder.jpg,corn02.jpg,,,,,1,0,7,,,,,.\resources\elbow.jpg,,,1,,,,,,,,,1,,,,,,,,,None,204.00848413992207,None,204.00848413992207,None,,,,,,,197.5091968999477,200.25879120000172,199.97547289996874,None,0.08800000004000003,0.09790110005997121,0.11450660007540137,0.1977859000908211,0.2145301999989897,0.29785000008996576,0.3145376000320539,0.3977774999802932,0.414521099999547,0.48110800003632903,0.4977703000186011,0.5812874999828637,0.597806700039655,0.6812143999850377,0.6977817000588402,0.7810824000043795,0.7977236000588164,,,,,,,,,,,,,200.47545369993895,None,200.47545369993895,None,201.27538789995015,None,201.27538789995015,None,left,2.228822399978526,201.27538789995015,None,203.52529339992907,None,right,0.19489649997558445,203.52529339992907,None,203.52529339992907,None,-9.594781776483776,150.04385846783424,,,test,001,2021_Apr_09_1026,AB_pic_singleT2,2020.2.10,60.01453549144442,
AB,lag7,7,5,12,0.07866666671000003,0.0066709999999999955,0.3,ramp,,,,,0,13,13,13,,,,,,,squirrel.jpg,giraffe.jpg,banjo.jpg,pingpongtable.jpg,chefshat.jpg,greatwhiteshark.jpg,alligator.jpg,badmintonracket.jpg,crab01.jpg,musicsheet.jpg,scooter.jpg,microwave.jpg,bow.jpg,chainsaw.jpg,flag.jpg,spicerack.jpg,bat.jpg,,,,,0,0,14,,,,,.\resources\microwave.jpg,,,1,,,,,,,,,1,,,,,,,,,None,209.22500453994144,None,209.22500453994144,None,,,,,,,204.0085931000067,206.75883700000122,206.49221289996058,None,0.07866666671000003,0.08165199996437877,0.09834440005943179,0.16515360004268587,0.18197040003724396,0.26524560002144426,0.28137570002581924,0.34806220000609756,0.3647281000157818,0.4314104999648407,0.4480193000053987,0.514658399973996,0.5313518999610096,0.5980445999884978,0.6146967000095174,0.6813417000230402,0.6980665000155568,0.764735099975951,0.7813822999596596,0.8480331000173464,0.8646988000255078,0.9479877999983728,0.9646495999768376,1.0313142000231892,1.0480000999523327,1.1147233999799937,1.1313168000197038,1.1979766000295058,1.2146391000133008,206.992164199939,None,206.992164199939,None,208.30847329995595,None,208.30847329995595,None,right,0.44381979992613196,208.30847329995595,None,208.77513439999893,None,right,0.16106249997392297,208.77513439999893,None,208.77513439999893,None,-8.919943188388041,150.09993356638552,1.2813102999934927,1.2979656000388786,test,001,2021_Apr_09_1026,AB_pic_singleT2,2020.2.10,60.01453549144442,
AB,lag1,1,3,4,0.06933333338000003,0.0033379999999999955,0.3,ramp,,,,,0,14,14,14,,,,,,,skunk.jpg,snowshovel.jpg,locker.jpg,bull.jpg,well.jpg,peacock.jpg,greathornowl.jpg,elbow.jpg,drumset.jpg,vulture.jpg,eye.jpg,flag.jpg,bluejay.jpg,daddylonglegs.jpg,airhockeytable.jpg,crab01.jpg,giraffe.jpg,,,,,0,1,6,,,,,.\resources\bull.jpg,,,1,,,,,,,,,1,,,,,,,,,None,214.00804533995688,None,214.00804533995688,None,,,,,,,209.24175990000367,211.99206419999246,211.70874519995414,None,0.06933333338000003,0.08179500000551343,0.09788429993204772,0.1478827999671921,0.16452919994480908,0.23159610002767295,0.24829569994471967,0.29782540001906455,0.31449260003864765,0.36456390004605055,0.38175519998185337,0.44788140000309795,0.46448860003147274,0.5144842000445351,0.5311859999783337,,,,,,,,,,,,,,,212.20828729995992,None,212.20828729995992,None,212.75872149993666,None,212.75872149993666,None,right,0.7615443000104278,212.75872149993666,None,213.54149899992626,None,left,0.1707256999798119,213.54149899992626,None,213.54149899992626,None,-7.90515905873236,150.1754740964528,,,test,001,2021_Apr_09_1026,AB_pic_singleT2,2020.2.10,60.01453549144442,
AB,lag6,6,5,11,0.06000000005000003,0.0,0.3,main,,,,,0,15,15,15,,,,,,,tarantula.jpg,pumpkin.jpg,parkingmeter.jpg,jellybean.jpg,bowlingball.jpg,snowman.jpg,bow.jpg,flamingo.jpg,golfball.jpg,badmintonracket.jpg,chair.jpg,harmonica.jpg,lizard.jpg,snowshovel.jpg,kite.jpg,boat.jpg,humanskeleton.jpg,,,,,1,0,13,,,,,.\resources\chair.jpg,,,1,,,,,,,,,1,,,,,,,,,None,219.0410567598883,None,219.0410567598883,None,,,,,,,214.02484440000262,216.7746379999444,216.50800179992802,None,0.060883708793224654,0.06450239999685436,0.08114350005052984,0.1311637000180781,0.14780599996447563,0.19777710002381355,0.21442440000828356,0.24777609994634986,0.26450080005452037,0.3145026999991387,0.3311498999828473,0.3811858999542892,0.39785359997767955,0.431100600049831,0.4477595000062138,0.4977566000306979,0.5144306999864057,0.5644853999838233,0.5811649999814108,0.6144776999717578,0.6310784999513999,0.6810750999720767,0.6977503000525758,0.7310510999523103,0.7477457999484614,0.7977379000512883,0.8144911000272259,0.8644687000196427,0.881095299962908,217.02461720001884,None,217.02461720001884,None,217.9079236999387,None,217.9079236999387,None,left,0.6842732999939471,217.9079236999387,None,218.60782969999127,None,right,0.1286746000405401,218.60782969999127,None,218.60782969999127,None,-6.789771266956702,150.25202324861965,,,test,001,2021_Apr_09_1026,AB_pic_singleT2,2020.2.10,60.01453549144442,
,,,,,,,,,,,,,,,,,,,,,,,pigeon.jpg,acousticguitar02.jpg,daddylonglegs.jpg,toolbox02.jpg,dreamcatcher.jpg,waterfall.jpg,noparkingsign.jpg,locker.jpg,pumpkin.jpg,platypus.jpg,skateboard.jpg,spiderweb.jpg,ostrich.jpg,bed.jpg,jellybean.jpg,windmill.jpg,jeep.jpg,,,,,,,,,,,,,,,,,,,,,,,,,,,,,,,,,,,,,,,,,,,,,,,,,,,,,,,,,,,,,,,,,,,,,,,,,,,,,,,,,,,,,,,,,,,,,,,,,,,,,,,,,,,
