trialType,cndTyp,lag,T1_loc,T2_loc,stimLen,isi,skipProb,phase,trials.thisRepN,trials.thisTrialN,trials.thisN,trials.thisIndex,trials2.thisRepN,trials2.thisTrialN,trials2.thisN,trials2.thisIndex,key_resp_4.keys,key_resp_4.rt,key_resp_4.started,key_resp_4.stopped,textbox.started,textbox.stopped,img0,img1,img2,img3,img4,img5,img6,img7,img8,img9,img10,img11,img12,img13,img14,img15,img16,option1.started,option1.stopped,text_2.started,text_2.stopped,skip1,skip2,lastPresent,displayPicture.started,displayPicture.stopped,polygon_2.started,polygon_2.stopped,opt1_t1,polygon_4.started,polygon_4.stopped,cor1,option1_t1.started,option1_t1.stopped,key_resp.keys,key_resp.rt,key_resp.started,key_resp.stopped,polygon_5.started,polygon_5.stopped,cor2,key_resp_2.keys,key_resp_2.rt,key_resp_2.started,key_resp_2.stopped,textbox_2.started,textbox_2.stopped,textbox_3.started,textbox_3.stopped,key_resp_3.keys,key_resp_3.started,key_resp_3.stopped,textbox_6.started,textbox_6.stopped,key_resp_7.keys,key_resp_7.rt,key_resp_7.started,key_resp_7.stopped,textbox_4.started,textbox_4.stopped,option1_3.started,option1_3.stopped,text_7.started,text_7.stopped,curStimTim,stimOFF0,stimON0,stimOFF1,stimON1,stimOFF2,stimON2,stimOFF3,stimON3,stimOFF4,stimON4,stimOFF5,stimON5,stimOFF6,stimON6,stimOFF7,stimON7,stimOFF8,stimON8,stimOFF9,stimON9,stimOFF10,stimON10,stimOFF11,stimON11,stimOFF12,stimON12,stimOFF13,stimON13,displayPicture_4.started,displayPicture_4.stopped,polygon_16.started,polygon_16.stopped,polygon_7.started,polygon_7.stopped,option1_t1_2.started,option1_t1_2.stopped,key_resp_6.keys,key_resp_6.rt,key_resp_6.started,key_resp_6.stopped,polygon_17.started,polygon_17.stopped,key_resp_8.keys,key_resp_8.rt,key_resp_8.started,key_resp_8.stopped,textbox_5.started,textbox_5.stopped,B0,B1,participant,session,date,expName,psychopyVersion,frameRate,
,,,,,,,,,,,,,,,,,space,1.2198371999998017,10.211904100000083,None,,,,,,,,,,,,,,,,,,,,,,,,,,,,,,,,,,,,,,,,,,,,,,,,,,,,,,,,,,,,,,,,,,,,,,,,,,,,,,,,,,,,,,,,,,,,,,,,,,,,,,,,,,,,,,,,,,,,,,test,001,2021_Apr_09_1048,AB_pic_singleT2,2021.1.2,60.00409227909265,
AB,lag1,1,4,5,0.2,0.05,0.5,,0,0,0,12,,,,,,,,,10.211904100000083,None,spicerack.jpg,crosscountryski.jpg,eiffeltower.jpg,acorn.jpg,snowshoe.jpg,noparkingsign.jpg,platypus.jpg,porcupine.jpg,cobra.jpg,zebra.jpg,key07.jpg,steeringwheel.jpg,trophy01.jpg,footballhelmet.jpg,bluejay.jpg,rose.jpg,chimney.jpg,11.4886876999999,14.238491600000089,13.971847100000105,None,0,1,7,14.471809699999994,None,14.471809699999994,None,.\resources\snowshoe.jpg,16.471454900000026,None,1,16.471454900000026,None,right,0.90436469999986,16.471454900000026,None,17.40477490000012,None,1,left,0.1309157000000596,17.40477490000012,None,17.40477490000012,None,17.571440900000198,None,None,18.57119596999987,None,18.57119596999987,None,,,,,,,,,,,,,,,,,,,,,,,,,,,,,,,,,,,,,,,,,,,,,,,,,,,,,,,,,,,,,,test,001,2021_Apr_09_1048,AB_pic_singleT2,2021.1.2,60.00409227909265,
AB,lag1,1,3,4,0.2,0.05,0.5,,0,1,1,3,,,,,,,,,,,triangle.jpg,dartboard.jpg,christmastree.jpg,turnstile.jpg,fireplace.jpg,dolphin01.jpg,chimney.jpg,rollerblade.jpg,escalator.jpg,banjo.jpg,locker.jpg,swordfish.jpg,paperairplane.jpg,windmill.jpg,dormer.jpg,hammerheadshark.jpg,mrpotatohead.jpg,18.57136470000023,21.321333700000196,21.05466000000024,None,0,0,6,21.554632700000184,None,21.554632700000184,None,.\resources\turnstile.jpg,23.304331400000137,None,1,23.304331400000137,None,right,0.45549209999990126,23.304331400000137,None,23.787588700000015,None,1,right,0.12422109999988606,23.787588700000015,None,23.787588700000015,None,23.937636799999837,None,None,24.937405169999828,None,24.937405169999828,None,,,,,,,,,,,,,,,,,,,,,,,,,,,,,,,,,,,,,,,,,,,,,,,,,,,,,,,,,,,,,,test,001,2021_Apr_09_1048,AB_pic_singleT2,2021.1.2,60.00409227909265,
AB,lag2,2,3,5,0.2,0.05,0.5,,0,2,2,4,,,,,,,,,,,greathornowl.jpg,punchingbag.jpg,totempole.jpg,airhockeytable.jpg,spicerack.jpg,curtain.jpg,nose.jpg,key07.jpg,rose.jpg,pirateflag.jpg,grizzly.jpg,dreamcatcher.jpg,cobra.jpg,sandcastle.jpg,scorpion.jpg,frenchfries.jpg,jackrabbit.jpg,24.937507000000096,27.687712999999803,27.421084099999916,None,0,1,7,27.920752300000004,None,27.920752300000004,None,.\resources\spicerack.jpg,29.937347800000225,None,1,29.937347800000225,None,right,0.5583732999998574,29.937347800000225,None,30.537296399999832,None,1,left,0.17444160000013653,30.537296399999832,None,30.537296399999832,None,30.73728680000022,None,None,31.7371319700002,None,31.7371319700002,None,,,,,,,,,,,,,,,,,,,,,,,,,,,,,,,,,,,,,,,,,,,,,,,,,,,,,,,,,,,,,,test,001,2021_Apr_09_1048,AB_pic_singleT2,2021.1.2,60.00409227909265,
AB,lag2,2,5,7,0.2,0.05,0.5,,0,3,3,9,,,,,,,,,,,slug.jpg,coffeemaker.jpg,doghouse.jpg,tulip02.jpg,pirateflag.jpg,frisbee.jpg,parachute.jpg,hulahoop.jpg,helicopter.jpg,brownsugar.jpg,jackrabbit.jpg,lip.jpg,christmaslights.jpg,beerbottle.jpg,cactus.jpg,paperairplane.jpg,sausage.jpg,31.73720689999982,34.4874420000001,34.220846300000176,None,0,0,9,34.737430499999846,None,34.737430499999846,None,.\resources\parachute.jpg,37.236858799999936,None,1,37.236858799999936,None,right,0.4428458000002138,37.236858799999936,None,37.72017030000006,None,1,right,0.10350349999998798,37.72017030000006,None,37.72017030000006,None,37.87016480000011,None,None,38.86997696999983,None,38.86997696999983,None,,,,,,,,,,,,,,,,,,,,,,,,,,,,,,,,,,,,,,,,,,,,,,,,,,,,,,,,,,,,,,test,001,2021_Apr_09_1048,AB_pic_singleT2,2021.1.2,60.00409227909265,
AB,lag3,3,5,8,0.2,0.05,0.5,,0,4,4,10,,,,,,,,,,,seagull.jpg,motorcycle.jpg,hotdogweiner.jpg,raccoon.jpg,firehydrant.jpg,exitsign.jpg,scorpion.jpg,kangaroo.jpg,butterfly.jpg,eiffeltower.jpg,cross01.jpg,bowlingpin.jpg,fridge.jpg,hand01b.jpg,snowboard.jpg,uprightpiano01.jpg,trumpet.jpg,38.88674450000008,41.636571900000035,41.369970600000215,None,0,1,10,41.886555300000055,None,41.886555300000055,None,.\resources\kangaroo.jpg,44.63634950000005,None,1,44.63634950000005,None,right,0.923386599999958,44.63634950000005,None,45.586553099999946,None,1,left,0.1332124999998996,45.586553099999946,None,45.586553099999946,None,45.75290760000007,None,None,46.75315746999981,None,46.75315746999981,None,,,,,,,,,,,,,,,,,,,,,,,,,,,,,,,,,,,,,,,,,,,,,,,,,,,,,,,,,,,,,,test,001,2021_Apr_09_1048,AB_pic_singleT2,2021.1.2,60.00409227909265,
AB,lag4,4,4,8,0.2,0.05,0.5,,0,5,5,13,,,,,,,,,,,cheetah.jpg,jellybean.jpg,parachute.jpg,guitarcase.jpg,lightswitch01.jpg,moose.jpg,jackrabbit.jpg,kneepad01c.jpg,tire.jpg,tulip02.jpg,harmonica.jpg,scorpion.jpg,bluejay.jpg,frisbee.jpg,fireplace.jpg,eye.jpg,dormer.jpg,46.76994000000013,49.51931190000005,49.25266650000003,None,1,1,10,49.75262389999989,None,49.75262389999989,None,.\resources\kneepad01c.jpg,52.51909239999986,None,0,52.51909239999986,None,right,5.144624999999905,52.51909239999986,None,57.68532039999991,None,0,right,0.30644530000017767,57.68532039999991,None,57.68532039999991,None,58.0353240999998,None,None,59.035120770000184,None,59.035120770000184,None,,,,,,,,,,,,,,,,,,,,,,,,,,,,,,,,,,,,,,,,,,,,,,,,,,,,,,,,,,,,,,test,001,2021_Apr_09_1048,AB_pic_singleT2,2021.1.2,60.00409227909265,
AB,lag6,6,5,11,0.2,0.05,0.5,,0,6,6,0,,,,,,,,,,,horseshoe.jpg,table01.jpg,zipper.jpg,bowlingball.jpg,steeringwheel.jpg,cat.jpg,lightswitch01.jpg,key07.jpg,car.jpg,surfboard.jpg,armadillo.jpg,jackrabbit.jpg,wallclock.jpg,cymbal.jpg,motorcycle.jpg,polarbear.jpg,donut.jpg,59.05189199999995,61.802076699999816,61.53546210000013,None,0,1,13,62.052053200000046,None,62.052053200000046,None,.\resources\armadillo.jpg,65.55141760000015,None,1,65.55141760000015,None,right,6.040295799999967,65.55141760000015,None,71.61765620000006,None,1,left,0.07818689999976414,71.61765620000006,None,71.61765620000006,None,71.71763890000011,None,None,72.71748867000011,None,72.71748867000011,None,,,,,,,,,,,,,,,,,,,,,,,,,,,,,,,,,,,,,,,,,,,,,,,,,,,,,,,,,,,,,,test,001,2021_Apr_09_1048,AB_pic_singleT2,2021.1.2,60.00409227909265,
AB,lag7,7,5,12,0.2,0.05,0.5,,0,7,7,7,,,,,,,,,,,christmaslights.jpg,pigeon.jpg,treadmill.jpg,witchhat.jpg,turnstile.jpg,wallclock.jpg,locker.jpg,polarbear.jpg,pumpkin.jpg,wheelchair.jpg,musicsheet.jpg,granolabar01.jpg,eyepatch.jpg,cigar.jpg,dormer.jpg,parrot01.jpg,doghouse.jpg,72.73424729999988,75.48441309999998,75.20113059999994,None,1,1,14,75.71773889999986,None,75.71773889999986,None,.\resources\granolabar01.jpg,79.46709640000017,None,1,79.46709640000017,None,left,0.5165302999998858,79.46709640000017,None,80.01703700000007,None,1,left,0.11069870000028459,80.01703700000007,None,80.01703700000007,None,80.1670207000002,None,None,81.16689896999983,None,81.16689896999983,None,,,,,,,,,,,,,,,,,,,,,,,,,,,,,,,,,,,,,,,,,,,,,,,,,,,,,,,,,,,,,,test,001,2021_Apr_09_1048,AB_pic_singleT2,2021.1.2,60.00409227909265,
AB,lag7,7,4,11,0.2,0.05,0.5,,0,8,8,2,,,,,,,,,,,cactus.jpg,spiderweb.jpg,funnel.jpg,surfboard.jpg,lollipop04.jpg,dartboard.jpg,banjo.jpg,chimney.jpg,mummy.jpg,jellyfish.jpg,vacuumcleaner01.jpg,tire.jpg,turnstile.jpg,frenchfries.jpg,beerbottle.jpg,fingerprint.jpg,sheep.jpg,81.16695410000011,83.91712839999991,83.65052569999989,None,1,1,13,84.1671237999999,None,84.1671237999999,None,.\resources\vacuumcleaner01.jpg,87.66653499999984,None,1,87.66653499999984,None,left,1.5491400999999314,87.66653499999984,None,89.25019470000007,None,1,left,0.12551040000016656,89.25019470000007,None,89.25019470000007,None,89.43349089999992,None,None,90.4333185699999,None,90.4333185699999,None,,,,,,,,,,,,,,,,,,,,,,,,,,,,,,,,,,,,,,,,,,,,,,,,,,,,,,,,,,,,,,test,001,2021_Apr_09_1048,AB_pic_singleT2,2021.1.2,60.00409227909265,
AB,lag5,5,4,9,0.2,0.05,0.5,,0,9,9,6,,,,,,,,,,,dreamcatcher.jpg,athleticsock.jpg,peacock.jpg,cigar.jpg,knee.jpg,ceilingfan01.jpg,golfball.jpg,sandcastle.jpg,boxingglove01.jpg,marble.jpg,eiffeltower.jpg,noparkingsign.jpg,jeep.jpg,lion.jpg,drumstick.jpg,chair.jpg,flamingo.jpg,90.45008969999981,93.19949120000001,92.91619709999986,None,0,0,11,93.4328088000002,None,93.4328088000002,None,.\resources\boxingglove01.jpg,96.43259209999997,None,1,96.43259209999997,None,right,0.47106110000004264,96.43259209999997,None,96.94921609999983,None,1,right,0.23451629999999568,96.94921609999983,None,96.94921609999983,None,97.19918730000018,None,None,98.19901976999986,None,98.19901976999986,None,,,,,,,,,,,,,,,,,,,,,,,,,,,,,,,,,,,,,,,,,,,,,,,,,,,,,,,,,,,,,,test,001,2021_Apr_09_1048,AB_pic_singleT2,2021.1.2,60.00409227909265,
AB,lag3,3,3,6,0.2,0.05,0.5,,0,10,10,5,,,,,,,,,,,foosballtable.jpg,squirrel.jpg,hotdogweiner.jpg,brownsugar.jpg,penguin.jpg,skateboard.jpg,licenseplate.jpg,masquerademask01.jpg,urinal.jpg,callbell.jpg,vulture.jpg,hockeystick.jpg,africanelephant.jpg,birthdaycandle.jpg,dandelion.jpg,humanskeleton.jpg,fireplace.jpg,98.21624490000022,100.96561470000006,100.68227669999987,None,0,1,8,101.19890780000014,None,101.19890780000014,None,.\resources\skateboard.jpg,103.44871280000007,None,1,103.44871280000007,None,right,0.8069993999997678,103.44871280000007,None,104.31533360000003,None,1,left,0.020390799999859155,104.31533360000003,None,104.31533360000003,None,104.38198610000018,None,None,105.38226967000006,None,105.38226967000006,None,,,,,,,,,,,,,,,,,,,,,,,,,,,,,,,,,,,,,,,,,,,,,,,,,,,,,,,,,,,,,,test,001,2021_Apr_09_1048,AB_pic_singleT2,2021.1.2,60.00409227909265,
AB,lag5,5,4,9,0.2,0.05,0.5,,0,11,11,11,,,,,,,,,,,crab01.jpg,bowlingball.jpg,horse.jpg,dalmatian.jpg,zipper.jpg,cupcake.jpg,platypus.jpg,eiffeltower.jpg,sandcastle.jpg,tie02.jpg,bat.jpg,lollipop04.jpg,cannon.jpg,lily.jpg,paperairplane.jpg,tulip02.jpg,lizard.jpg,105.39899830000013,108.14837729999999,107.86509780000006,None,1,1,11,108.38169340000013,None,108.38169340000013,None,.\resources\sandcastle.jpg,111.38147690000005,None,1,111.38147690000005,None,left,0.8901707999998507,111.38147690000005,None,112.31472389999999,None,1,left,0.11685369999986506,112.31472389999999,None,112.31472389999999,None,112.4480365999998,None,None,113.44786046999994,None,113.44786046999994,None,,,,,,,,,,,,,,,,,,,,,,,,,,,,,,,,,,,,,,,,,,,,,,,,,,,,,,,,,,,,,,test,001,2021_Apr_09_1048,AB_pic_singleT2,2021.1.2,60.00409227909265,
AB,lag4,4,3,7,0.2,0.05,0.5,,0,12,12,1,,,,,,,,,,,daddylonglegs.jpg,hockeystick.jpg,saxophone.jpg,pingpongtable.jpg,foot.jpg,shovel01.jpg,ipad02.jpg,eyepatch.jpg,treadmill.jpg,sandcastle.jpg,scooter.jpg,accordion01.jpg,pooltable.jpg,birthdaycandle.jpg,bluejay.jpg,alligator.jpg,tortoise01.jpg,113.46466139999984,116.21482680000008,115.94818579999992,None,1,0,9,116.44774869999992,None,116.44774869999992,None,.\resources\ipad02.jpg,118.96422639999992,None,1,118.96422639999992,None,left,0.4914767000000211,118.96422639999992,None,119.49752219999982,None,1,right,0.06215879999990648,119.49752219999982,None,119.49752219999982,None,119.58085040000014,None,None,120.58068126999993,None,120.58068126999993,None,,,,,,,,,,,,,,,,,,,,,,,,,,,,,,,,,,,,,,,,,,,,,,,,,,,,,,,,,,,,,,test,001,2021_Apr_09_1048,AB_pic_singleT2,2021.1.2,60.00409227909265,
AB,lag6,6,5,11,0.2,0.05,0.5,,0,13,13,8,,,,,,,,,,,pingpongtable.jpg,smokingpipe.jpg,bacon.jpg,stool01.jpg,bluejay.jpg,makiroll.jpg,turnstile.jpg,grizzly.jpg,boxingglove01.jpg,moose.jpg,crosscountryski.jpg,recyclingbin.jpg,bridge.jpg,pumpkin.jpg,bow.jpg,birdhouse.jpg,drumset.jpg,120.59744490000003,123.3476498,123.08102719999988,None,0,1,13,123.59763310000017,None,123.59763310000017,None,.\resources\crosscountryski.jpg,127.09697030000007,None,1,127.09697030000007,None,right,0.47871040000018183,127.09697030000007,None,127.61361160000024,None,1,left,0.08211619999974573,127.61361160000024,None,127.61361160000024,None,127.73027839999986,None,None,128.73010576999982,None,128.73010576999982,None,,,,,,,,,,,,,,,,,,,,,,,,,,,,,,,,,,,,,,,,,,,,,,,,,,,,,,,,,,,,,,test,001,2021_Apr_09_1048,AB_pic_singleT2,2021.1.2,60.00409227909265,
,,,,,,,,,,,,,,,,,,,,,,,,,,,,,,,,,,,,,,,,,,,,,,,,,,,,,,,,,,,,,,,,,,,,,,,,,,,,,space,1.2594218999997793,128.7468518999999,None,,,,,,,,,,,,,,,,,,,,,,,,,,,,,,,,,,,,,,,,,,,,,,,,,,,,,,,,,,test,001,2021_Apr_09_1048,AB_pic_singleT2,2021.1.2,60.00409227909265,
AB,lag6,6,5,11,0.2,0.05,0.5,ramp,,,,,0,0,0,0,,,,,,,christmastree.jpg,kite.jpg,uprightpiano01.jpg,eye.jpg,tricycle.jpg,baseballbat.jpg,snowman.jpg,moon.jpg,bed.jpg,safe.jpg,ear.jpg,harmonica.jpg,waterfall.jpg,jackrabbit.jpg,bowtie.jpg,frenchfries.jpg,bacon.jpg,,,,,1,0,13,,,,,.\resources\ear.jpg,,,1,,,,,,,,,1,,,,,,,,,None,137.29612567000018,None,137.29612567000018,None,,,,,128.7468518999999,None,130.14675089999992,132.89655129999983,132.62990209999998,None,0.2,0.2161909999999807,0.26618379999990793,0.46617190000006303,0.5161628999999266,0.7161568000001353,0.7661477000001469,0.9661387000001014,1.016139800000019,1.2161201999997502,1.2661216000001332,1.466102200000023,1.5160934000000452,1.7160776000000624,1.7660768999999163,1.9660697999997865,2.016063199999735,2.216036400000121,2.2660359999999855,2.46603499999992,2.5160319999999956,2.7160165000000234,2.7660139999998137,2.9659959999999046,3.0159819999998945,3.215968800000155,3.26596359999985,3.465958899999805,3.5159570000000713,133.04654140000002,None,133.04654140000002,None,136.57963999999993,None,136.57963999999993,None,left,0.5960418999998183,136.57963999999993,None,137.21289720000004,None,right,0.058809199999814155,137.21289720000004,None,137.21289720000004,None,,,test,001,2021_Apr_09_1048,AB_pic_singleT2,2021.1.2,60.00409227909265,
AB,lag4,4,4,8,0.19066666667,0.046667,0.48,ramp,,,,,0,1,1,1,,,,,,,schoolbus.jpg,uprightpiano01.jpg,waterfall.jpg,sword01.jpg,bench01.jpg,totempole.jpg,snowshovel.jpg,paperairplane.jpg,corn02.jpg,lizard.jpg,ostrich.jpg,dandelion.jpg,apron.jpg,dartboard.jpg,drumstick.jpg,dromedary.jpg,cow.jpg,,,,,1,1,10,,,,,.\resources\paperairplane.jpg,,,1,,,,,,,,,1,,,,,,,,,None,143.86232407000003,None,143.86232407000003,None,,,,,,,137.31289950000019,140.0630973000002,139.79645429999982,None,0.19066666667,0.19759739999972226,0.24757169999975304,0.43130189999965296,0.48129329999983383,0.6808744999998453,0.7142175999997562,0.914201999999932,0.9641944999998486,1.1475977999998577,1.197587999999996,1.3808768999997483,1.430821399999786,1.6308075999995708,1.664144899999883,1.8641316999996889,1.9141275999995742,2.097530099999858,2.1475193999999647,2.330735099999856,2.3807935999998335,2.5640756999996484,2.614071999999851,,,,,,,140.31310140000005,None,140.31310140000005,None,142.92915679999987,None,142.92915679999987,None,left,0.7185002999999597,142.92915679999987,None,143.69577740000022,None,left,0.12005030000000261,143.69577740000022,None,143.69577740000022,None,,,test,001,2021_Apr_09_1048,AB_pic_singleT2,2021.1.2,60.00409227909265,
AB,lag7,7,4,11,0.18133333334,0.043334,0.45999999999999996,ramp,,,,,0,2,2,2,,,,,,,platypus.jpg,tire.jpg,footballhelmet.jpg,christmastree.jpg,cobra.jpg,bow.jpg,jellybean.jpg,snowshoe.jpg,foot.jpg,cheetah.jpg,moon.jpg,sheep.jpg,vacuumcleaner01.jpg,drumstick.jpg,kangaroo.jpg,statue.jpg,drumset.jpg,,,,,0,0,13,,,,,.\resources\moon.jpg,,,1,,,,,,,,,1,,,,,,,,,None,150.36191877000024,None,150.36191877000024,None,,,,,,,143.8790938000002,146.6289442000002,146.3622891,None,0.18133333334,0.19593299999996816,0.22925769999983459,0.4125970000000052,0.46259439999994356,0.6459091000001536,0.6793106999998599,0.8625428999998803,0.9125419000001784,1.0958662000002732,1.1292895000001408,1.3125132000000121,1.362507000000278,1.5458334999998442,1.5792460000002393,1.762480400000186,1.8127675000000636,1.97921499999984,2.0292131000001064,2.2124456000001373,2.262436699999853,2.4291879000002154,2.4791196999999556,2.6624446000000717,2.71241770000006,2.8790635999998813,2.9290608999999677,3.112399699999969,3.1457405999999537,146.87892740000007,None,146.87892740000007,None,150.0286986000001,None,150.0286986000001,None,right,0.1629304999996748,150.0286986000001,None,150.2286855000002,None,right,0.11504039999999804,150.2286855000002,None,150.2286855000002,None,-10.00407683084685,150.00000012762652,test,001,2021_Apr_09_1048,AB_pic_singleT2,2021.1.2,60.00409227909265,
AB,lag5,5,5,10,0.17200000001000001,0.040000999999999995,0.43999999999999995,ramp,,,,,0,3,3,3,,,,,,,skippingrope.jpg,cross01.jpg,rooster.jpg,tree.jpg,dolphin01.jpg,marble.jpg,boxingglove01.jpg,brownsugar.jpg,foosballtable.jpg,schoolbus.jpg,airhockeytable.jpg,beerbottle.jpg,wheelbarrow01.jpg,bridge.jpg,apron.jpg,pig.jpg,scorpion.jpg,,,,,0,0,12,,,,,.\resources\schoolbus.jpg,,,1,,,,,,,,,1,,,,,,,,,None,156.6783299700002,None,156.6783299700002,None,,,,,,,150.37868130000015,153.12846790000003,152.86181699999997,None,0.17200000001000001,0.1799457000001894,0.21325720000004367,0.396590599999854,0.4299956999998358,0.5965630000000601,0.646581900000001,0.8132142999997996,0.863211599999886,1.0298360000001594,1.063169900000048,1.2464924999999312,1.27981600000021,1.4464948999998342,1.4965072999998483,1.663146599999891,1.6964747000001807,1.8798649000000296,1.9131281999998464,2.09642840000015,2.129783100000168,2.2964357000000746,2.3464170000002014,2.5130739999999605,2.5464827999999216,2.729717900000196,2.7630481000001055,,,153.3784482000001,None,153.3784482000001,None,156.14488440000014,None,156.14488440000014,None,right,0.3749063999998725,156.14488440000014,None,156.56153760000007,None,right,0.09408970000004047,156.56153760000007,None,156.56153760000007,None,-10.00811373316635,150.0000004094443,test,001,2021_Apr_09_1048,AB_pic_singleT2,2021.1.2,60.00409227909265,
AB,lag2,2,3,5,0.16266666668000002,0.03666799999999999,0.41999999999999993,ramp,,,,,0,4,4,4,,,,,,,key07.jpg,tire.jpg,swing.jpg,rubikcube.jpg,mailbox02.jpg,barrel01.jpg,treadmill.jpg,toolbox02.jpg,pooltable.jpg,bowtie.jpg,banjo.jpg,sword01.jpg,birthdaycandle.jpg,lion.jpg,birdnest.jpg,lily.jpg,crab01.jpg,,,,,1,0,7,,,,,.\resources\mailbox02.jpg,,,1,,,,,,,,,1,,,,,,,,,None,161.86104996999998,None,161.86104996999998,None,,,,,,,156.69485220000024,159.44464759999983,159.17799950000017,None,0.16266666668000002,0.1632580999998936,0.2132702999997491,0.36326029999963794,0.41324289999965913,0.5632329000000027,0.6132251999997607,0.7632321999999476,0.8132160999998632,0.9632075999998051,1.01321310000003,1.163186499999938,1.1965273999999226,1.363173999999617,1.3965135999997074,1.5631665999999313,1.5965013999998519,,,,,,,,,,,,,159.69464259999995,None,159.69464259999995,None,161.29451590000008,None,161.29451590000008,None,left,0.4411186999996062,161.29451590000008,None,161.7778161000001,None,right,0.06180919999997059,161.7778161000001,None,161.7778161000001,None,-10.012154026573118,150.00000116956898,test,001,2021_Apr_09_1048,AB_pic_singleT2,2021.1.2,60.00409227909265,
AB,lag3,3,5,8,0.15333333335000002,0.03333499999999999,0.3999999999999999,ramp,,,,,0,5,5,5,,,,,,,fridge.jpg,sledgehammer.jpg,witchhat.jpg,rubikcube.jpg,humanskeleton.jpg,birdhouse.jpg,bathtub.jpg,uprightpiano01.jpg,tie02.jpg,birdnest.jpg,ostrich.jpg,eiffeltower.jpg,sandcastle.jpg,chair.jpg,tank.jpg,firehydrant.jpg,basketball01.jpg,,,,,0,0,10,,,,,.\resources\uprightpiano01.jpg,,,1,,,,,,,,,1,,,,,,,,,None,167.47729927000015,None,167.47729927000015,None,,,,,,,161.87781029999996,164.62760530000014,164.3609624999999,None,0.15333333335000002,0.16236909999997806,0.19578249999995023,0.3457704000002195,0.3790097000000969,0.5290242999999464,0.5623402000001079,0.7289845999998761,0.7623176000001877,0.9123174999999719,0.9457381000001988,1.0957124999999905,1.1289827999999034,1.2789437000001271,1.312281399999847,1.462278200000128,1.4956829000002472,1.6622621999999865,1.6956754000002547,1.8456621999998788,1.8789123000001382,2.028912300000229,2.0622370000000956,,,,,,,164.87758780000013,None,164.87758780000013,None,166.9441069999998,None,166.9441069999998,None,right,0.3595252000000073,166.9441069999998,None,167.34408380000013,None,right,0.09562110000024404,167.34408380000013,None,167.34408380000013,None,-10.016168699917317,150.00000344296498,test,001,2021_Apr_09_1048,AB_pic_singleT2,2021.1.2,60.00409227909265,
AB,lag1,1,4,5,0.14400000002000002,0.03000199999999999,0.3799999999999999,ramp,,,,,0,6,6,6,,,,,,,flamingo.jpg,eyepatch.jpg,cocktailshrimp02.jpg,electricguitar01.jpg,pig.jpg,bullet.jpg,duck01.jpg,moon.jpg,soccerball.jpg,windshieldwiper02.jpg,ladybug03.jpg,fingerprint.jpg,bull.jpg,steeringwheel.jpg,tricycle.jpg,badmintonracket.jpg,recyclingbin.jpg,,,,,0,1,7,,,,,.\resources\pig.jpg,,,1,,,,,,,,,0,,,,,,,,,None,172.87692157000006,None,172.87692157000006,None,,,,,,,167.49407120000023,170.24390260000018,169.97723290000022,None,0.14400000002000002,0.14664029999994455,0.18004160000009506,0.3299505999998473,0.36328099999991537,0.4966174000001047,0.5300185999999485,0.6800063000000591,0.6965955000000577,0.8465815999998085,0.8799955999998019,1.0298993999999766,1.0465699999999742,1.1965872000000672,1.2299806999999419,1.3632073999997374,1.3965401000000384,,,,,,,,,,,,,170.4938471999999,None,170.4938471999999,None,171.89374690000022,None,171.89374690000022,None,right,0.7778809999999794,171.89374690000022,None,172.71038390000012,None,right,0.12930130000040663,172.71038390000012,None,172.71038390000012,None,-10.020135008302743,150.00001064530977,test,001,2021_Apr_09_1048,AB_pic_singleT2,2021.1.2,60.00409227909265,
AB,lag6,6,5,11,0.13466666669000002,0.02666899999999999,0.3599999999999999,ramp,,,,,0,7,7,7,,,,,,,mattress.jpg,skateboard.jpg,fortunecookie.jpg,apron.jpg,donut.jpg,foosballtable.jpg,saltshaker03a.jpg,windshieldwiper02.jpg,spiderweb.jpg,arrow02.jpg,butterfly.jpg,recyclingbin.jpg,mrpotatohead.jpg,lighthouse.jpg,nunchuk.jpg,microphone01.jpg,showerhead01.jpg,,,,,1,0,13,,,,,.\resources\butterfly.jpg,,,1,,,,,,,,,1,,,,,,,,,None,178.67648307000005,None,178.67648307000005,None,,,,,,,172.89367589999983,175.64348830000017,175.3768395000002,None,0.13466666669000002,0.14665860000013708,0.16332680000004984,0.2966454000002159,0.3299741000000722,0.4633158000001458,0.49663220000002184,0.6300317000000177,0.6466321000002608,0.780018100000234,0.8135425999998915,0.9465948000001845,0.9800057000002198,1.113276600000063,1.1300092000001314,1.2799064999999246,1.2965710000003128,1.4298931000002995,1.4632274000000507,1.59656780000023,1.6298805000001266,1.7632000000003245,1.7798670000001948,1.9131944999999178,1.9465511000003062,2.079844100000173,2.113184700000147,2.2465789000002587,2.2631759000000784,175.8934564000001,None,175.8934564000001,None,178.15997370000014,None,178.15997370000014,None,left,0.4076482999998916,178.15997370000014,None,178.59326240000019,None,right,0.06233729999985371,178.59326240000019,None,178.59326240000019,None,-10.023950338226175,150.00003406577008,test,001,2021_Apr_09_1048,AB_pic_singleT2,2021.1.2,60.00409227909265,
AB,lag3,3,4,7,0.12533333336000002,0.023335999999999992,0.33999999999999986,ramp,,,,,0,8,8,8,,,,,,,foldingchair.jpg,pingpongtable.jpg,chefshat.jpg,hockeypuck.jpg,kangaroo.jpg,moon.jpg,handcuffs.jpg,snowman.jpg,vacuumcleaner01.jpg,chainsaw.jpg,windshieldwiper02.jpg,table01.jpg,baseballbat.jpg,cat.jpg,humanskeleton.jpg,icecube02.jpg,bowlingpin.jpg,,,,,0,0,9,,,,,.\resources\handcuffs.jpg,,,1,,,,,,,,,1,,,,,,,,,None,183.67612187,None,183.67612187,None,,,,,,,178.6932551,181.44305059999988,181.15978480000012,None,0.12533333336000002,0.12843190000012328,0.1618442000003597,0.2784326000000874,0.31176900000036767,0.42841120000002775,0.4618202999999994,0.578396000000339,0.595059400000082,0.7283897000002071,0.7450439000003826,0.8783909000003405,0.895049800000379,1.0285986000003504,1.0451152000000548,1.1783494000001156,1.195098500000313,1.3283546000002389,1.345024900000226,1.4783338000002004,1.4950809000001755,,,,,,,,,181.67658290000008,None,181.67658290000008,None,183.1762619000001,None,183.1762619000001,None,right,0.34336290000010194,183.1762619000001,None,183.55957810000018,None,right,0.08802839999998469,183.55957810000018,None,183.55957810000018,None,-10.027344115719714,150.00011208959083,test,001,2021_Apr_09_1048,AB_pic_singleT2,2021.1.2,60.00409227909265,
,,,,,,,,,,,,,,,,,,,,,,,flamingo.jpg,squirrel.jpg,fingerprint.jpg,noparkingsign.jpg,dartboard.jpg,microphone01.jpg,parkingmeter.jpg,candycane01a.jpg,panda.jpg,boxingglove01.jpg,sink.jpg,pooltable.jpg,ducttape.jpg,volleyball.jpg,stubbywrench01a.jpg,vulture.jpg,hammerheadshark.jpg,,,,,,,,,,,,,,,,,,,,,,,,,,,,,,,,,,,,,,,,,,,,,,,,,,,,,,,,,,,,,,,,,,,,,,,,,,,,,,,,,,,,,,,,,,,,,,,,,,,,,,,,,
